ExperimentName	Subject	Session	Clock.Information	Display.RefreshRate	Group	RandomSeed	SessionDate	SessionTime	Block	Blocks	Blocks.Cycle	Blocks.Sample	Cnt	DoneMiss.OffsetTime	ImageDisplay1.ACC	ImageDisplay1.ActionDelay	ImageDisplay1.ActionTime	ImageDisplay1.CRESP	ImageDisplay1.CustomOffsetTime	ImageDisplay1.CustomOnsetTime	ImageDisplay1.Duration	ImageDisplay1.DurationError	ImageDisplay1.FinishTime	ImageDisplay1.OffsetDelay	ImageDisplay1.OffsetTime	ImageDisplay1.OnsetDelay	ImageDisplay1.OnsetTime	ImageDisplay1.PreRelease	ImageDisplay1.RESP	ImageDisplay1.RT	ImageDisplay1.RTTime	ImageDisplay1.StartTime	ImageDisplay1.Tag	ImageDisplay1.TargetOffsetTime	ImageDisplay1.TargetOnsetTime	ImageDisplay1.TimingMode	Procedure[Block]	Ready.OffsetTime	runList	Running[Block]	Trial	correct	Cue.OnsetTime	Image	Image2	List2	List2.Cycle	List2.Sample	Procedure[Trial]	Running[Trial]	Star.OnsetTime	Star1.OnsetTime	Target.OnsetTime	Target.RESP	Target.RT	text1	text2
MI_Revised	2109	2	<?xml version="1.0"?>\n<Clock xmlns:dt="urn:schemas-microsoft-com:datatypes"><Description dt:dt="string">E-Prime Primary Realtime Clock</Description><StartTime><Timestamp dt:dt="int">0</Timestamp><DateUtc dt:dt="string">2010-07-13T16:14:14Z</DateUtc></StartTime><FrequencyChanges><FrequencyChange><Frequency dt:dt="r8">2793120000</Frequency><Timestamp dt:dt="r8">3.09428813180004E+15</Timestamp><Current dt:dt="r8">0</Current><DateUtc dt:dt="string">1969-12-31T20:46:40Z</DateUtc></FrequencyChange></FrequencyChanges></Clock>\n	59.869	1	985703687	07-13-2010	11:14:14	1	1	2	1	48	371611	0	0	48590		0	0	-1	-999999	60573	-999999	60573	16	48590	100	{`}	11983	60573	48574		-1	48574	1	mission	48574	Image	Blocks	1	1	61084	1	.	1	3	1	stimulus	List2	62086	60583	63573	6	920	I.bmp	S10.bmp@
MI_Revised	2109	2	<?xml version="1.0"?>\n<Clock xmlns:dt="urn:schemas-microsoft-com:datatypes"><Description dt:dt="string">E-Prime Primary Realtime Clock</Description><StartTime><Timestamp dt:dt="int">0</Timestamp><DateUtc dt:dt="string">2010-07-13T16:14:14Z</DateUtc></StartTime><FrequencyChanges><FrequencyChange><Frequency dt:dt="r8">2793120000</Frequency><Timestamp dt:dt="r8">3.09428813180004E+15</Timestamp><Current dt:dt="r8">0</Current><DateUtc dt:dt="string">1969-12-31T20:46:40Z</DateUtc></FrequencyChange></FrequencyChanges></Clock>\n	59.869	1	985703687	07-13-2010	11:14:14	1	1	2	1	48	371611	0	0	48590		0	0	-1	-999999	60573	-999999	60573	16	48590	100	{`}	11983	60573	48574		-1	48574	1	mission	48574	Image	Blocks	2	1	67081	2	.	1	4	2	stimulus	List2	68083	66579	69586	6	851	L.bmp	S18.bmp@
MI_Revised	2109	2	<?xml version="1.0"?>\n<Clock xmlns:dt="urn:schemas-microsoft-com:datatypes"><Description dt:dt="string">E-Prime Primary Realtime Clock</Description><StartTime><Timestamp dt:dt="int">0</Timestamp><DateUtc dt:dt="string">2010-07-13T16:14:14Z</DateUtc></StartTime><FrequencyChanges><FrequencyChange><Frequency dt:dt="r8">2793120000</Frequency><Timestamp dt:dt="r8">3.09428813180004E+15</Timestamp><Current dt:dt="r8">0</Current><DateUtc dt:dt="string">1969-12-31T20:46:40Z</DateUtc></FrequencyChange></FrequencyChanges></Clock>\n	59.869	1	985703687	07-13-2010	11:14:14	1	1	2	1	48	371611	0	0	48590		0	0	-1	-999999	60573	-999999	60573	16	48590	100	{`}	11983	60573	48574		-1	48574	1	mission	48574	Image	Blocks	3	2	73077	3	.	1	5	3	stimulus	List2	74079	72576	75582	5	871	T.bmp	S13.bmp@
MI_Revised	2109	2	<?xml version="1.0"?>\n<Clock xmlns:dt="urn:schemas-microsoft-com:datatypes"><Description dt:dt="string">E-Prime Primary Realtime Clock</Description><StartTime><Timestamp dt:dt="int">0</Timestamp><DateUtc dt:dt="string">2010-07-13T16:14:14Z</DateUtc></StartTime><FrequencyChanges><FrequencyChange><Frequency dt:dt="r8">2793120000</Frequency><Timestamp dt:dt="r8">3.09428813180004E+15</Timestamp><Current dt:dt="r8">0</Current><DateUtc dt:dt="string">1969-12-31T20:46:40Z</DateUtc></FrequencyChange></FrequencyChanges></Clock>\n	59.869	1	985703687	07-13-2010	11:14:14	1	1	2	1	48	371611	0	0	48590		0	0	-1	-999999	60573	-999999	60573	16	48590	100	{`}	11983	60573	48574		-1	48574	1	mission	48574	Image	Blocks	4	1	79073	4	.	1	6	4	stimulus	List2	80076	78572	81579	6	594	U.bmp	S18.bmp@
MI_Revised	2109	2	<?xml version="1.0"?>\n<Clock xmlns:dt="urn:schemas-microsoft-com:datatypes"><Description dt:dt="string">E-Prime Primary Realtime Clock</Description><StartTime><Timestamp dt:dt="int">0</Timestamp><DateUtc dt:dt="string">2010-07-13T16:14:14Z</DateUtc></StartTime><FrequencyChanges><FrequencyChange><Frequency dt:dt="r8">2793120000</Frequency><Timestamp dt:dt="r8">3.09428813180004E+15</Timestamp><Current dt:dt="r8">0</Current><DateUtc dt:dt="string">1969-12-31T20:46:40Z</DateUtc></FrequencyChange></FrequencyChanges></Clock>\n	59.869	1	985703687	07-13-2010	11:14:14	1	1	2	1	48	371611	0	0	48590		0	0	-1	-999999	60573	-999999	60573	16	48590	100	{`}	11983	60573	48574		-1	48574	1	mission	48574	Image	Blocks	5	2	85087	5	.	1	7	5	stimulus	List2	86072	84585	87575	5	1006	H.bmp	S11.bmp@
MI_Revised	2109	2	<?xml version="1.0"?>\n<Clock xmlns:dt="urn:schemas-microsoft-com:datatypes"><Description dt:dt="string">E-Prime Primary Realtime Clock</Description><StartTime><Timestamp dt:dt="int">0</Timestamp><DateUtc dt:dt="string">2010-07-13T16:14:14Z</DateUtc></StartTime><FrequencyChanges><FrequencyChange><Frequency dt:dt="r8">2793120000</Frequency><Timestamp dt:dt="r8">3.09428813180004E+15</Timestamp><Current dt:dt="r8">0</Current><DateUtc dt:dt="string">1969-12-31T20:46:40Z</DateUtc></FrequencyChange></FrequencyChanges></Clock>\n	59.869	1	985703687	07-13-2010	11:14:14	1	1	2	1	48	371611	0	0	48590		0	0	-1	-999999	60573	-999999	60573	16	48590	100	{`}	11983	60573	48574		-1	48574	1	mission	48574	Image	Blocks	6	2	91083	6	.	1	8	6	stimulus	List2	92085	90582	93572	5	849	L.bmp	S15.bmp@
MI_Revised	2109	2	<?xml version="1.0"?>\n<Clock xmlns:dt="urn:schemas-microsoft-com:datatypes"><Description dt:dt="string">E-Prime Primary Realtime Clock</Description><StartTime><Timestamp dt:dt="int">0</Timestamp><DateUtc dt:dt="string">2010-07-13T16:14:14Z</DateUtc></StartTime><FrequencyChanges><FrequencyChange><Frequency dt:dt="r8">2793120000</Frequency><Timestamp dt:dt="r8">3.09428813180004E+15</Timestamp><Current dt:dt="r8">0</Current><DateUtc dt:dt="string">1969-12-31T20:46:40Z</DateUtc></FrequencyChange></FrequencyChanges></Clock>\n	59.869	1	985703687	07-13-2010	11:14:14	1	1	2	1	48	371611	0	0	48590		0	0	-1	-999999	60573	-999999	60573	16	48590	100	{`}	11983	60573	48574		-1	48574	1	mission	48574	Image	Blocks	7	1	97079	7	.	1	9	7	stimulus	List2	98082	96578	99585	6	908	T.bmp	S12.bmp@
MI_Revised	2109	2	<?xml version="1.0"?>\n<Clock xmlns:dt="urn:schemas-microsoft-com:datatypes"><Description dt:dt="string">E-Prime Primary Realtime Clock</Description><StartTime><Timestamp dt:dt="int">0</Timestamp><DateUtc dt:dt="string">2010-07-13T16:14:14Z</DateUtc></StartTime><FrequencyChanges><FrequencyChange><Frequency dt:dt="r8">2793120000</Frequency><Timestamp dt:dt="r8">3.09428813180004E+15</Timestamp><Current dt:dt="r8">0</Current><DateUtc dt:dt="string">1969-12-31T20:46:40Z</DateUtc></FrequencyChange></FrequencyChanges></Clock>\n	59.869	1	985703687	07-13-2010	11:14:14	1	1	2	1	48	371611	0	0	48590		0	0	-1	-999999	60573	-999999	60573	16	48590	100	{`}	11983	60573	48574		-1	48574	1	mission	48574	Image	Blocks	8	2	103076	8	.	1	10	8	stimulus	List2	104078	102575	105581	5	1176	I.bmp	S13.bmp@
MI_Revised	2109	2	<?xml version="1.0"?>\n<Clock xmlns:dt="urn:schemas-microsoft-com:datatypes"><Description dt:dt="string">E-Prime Primary Realtime Clock</Description><StartTime><Timestamp dt:dt="int">0</Timestamp><DateUtc dt:dt="string">2010-07-13T16:14:14Z</DateUtc></StartTime><FrequencyChanges><FrequencyChange><Frequency dt:dt="r8">2793120000</Frequency><Timestamp dt:dt="r8">3.09428813180004E+15</Timestamp><Current dt:dt="r8">0</Current><DateUtc dt:dt="string">1969-12-31T20:46:40Z</DateUtc></FrequencyChange></FrequencyChanges></Clock>\n	59.869	1	985703687	07-13-2010	11:14:14	1	1	2	1	48	371611	0	0	48590		0	0	-1	-999999	60573	-999999	60573	16	48590	100	{`}	11983	60573	48574		-1	48574	1	mission	48574	Image	Blocks	9	1	109072	9	.	1	11	9	stimulus	List2	110074	108572	111578	6	747	U.bmp	U10.bmp@
MI_Revised	2109	2	<?xml version="1.0"?>\n<Clock xmlns:dt="urn:schemas-microsoft-com:datatypes"><Description dt:dt="string">E-Prime Primary Realtime Clock</Description><StartTime><Timestamp dt:dt="int">0</Timestamp><DateUtc dt:dt="string">2010-07-13T16:14:14Z</DateUtc></StartTime><FrequencyChanges><FrequencyChange><Frequency dt:dt="r8">2793120000</Frequency><Timestamp dt:dt="r8">3.09428813180004E+15</Timestamp><Current dt:dt="r8">0</Current><DateUtc dt:dt="string">1969-12-31T20:46:40Z</DateUtc></FrequencyChange></FrequencyChanges></Clock>\n	59.869	1	985703687	07-13-2010	11:14:14	1	1	2	1	48	371611	0	0	48590		0	0	-1	-999999	60573	-999999	60573	16	48590	100	{`}	11983	60573	48574		-1	48574	1	mission	48574	Image	Blocks	10	1	115085	10	.	1	12	10	stimulus	List2	116072	114584	117574	6	975	H.bmp	H13.bmp@
MI_Revised	2109	2	<?xml version="1.0"?>\n<Clock xmlns:dt="urn:schemas-microsoft-com:datatypes"><Description dt:dt="string">E-Prime Primary Realtime Clock</Description><StartTime><Timestamp dt:dt="int">0</Timestamp><DateUtc dt:dt="string">2010-07-13T16:14:14Z</DateUtc></StartTime><FrequencyChanges><FrequencyChange><Frequency dt:dt="r8">2793120000</Frequency><Timestamp dt:dt="r8">3.09428813180004E+15</Timestamp><Current dt:dt="r8">0</Current><DateUtc dt:dt="string">1969-12-31T20:46:40Z</DateUtc></FrequencyChange></FrequencyChanges></Clock>\n	59.869	1	985703687	07-13-2010	11:14:14	1	1	2	1	48	371611	0	0	48590		0	0	-1	-999999	60573	-999999	60573	16	48590	100	{`}	11983	60573	48574		-1	48574	1	mission	48574	Image	Blocks	11	2	121082	11	.	1	13	11	stimulus	List2	122084	120581	123572	5	697	U.bmp	U11.bmp@
MI_Revised	2109	2	<?xml version="1.0"?>\n<Clock xmlns:dt="urn:schemas-microsoft-com:datatypes"><Description dt:dt="string">E-Prime Primary Realtime Clock</Description><StartTime><Timestamp dt:dt="int">0</Timestamp><DateUtc dt:dt="string">2010-07-13T16:14:14Z</DateUtc></StartTime><FrequencyChanges><FrequencyChange><Frequency dt:dt="r8">2793120000</Frequency><Timestamp dt:dt="r8">3.09428813180004E+15</Timestamp><Current dt:dt="r8">0</Current><DateUtc dt:dt="string">1969-12-31T20:46:40Z</DateUtc></FrequencyChange></FrequencyChanges></Clock>\n	59.869	1	985703687	07-13-2010	11:14:14	1	1	2	1	48	371611	0	0	48590		0	0	-1	-999999	60573	-999999	60573	16	48590	100	{`}	11983	60573	48574		-1	48574	1	mission	48574	Image	Blocks	12	1	127078	12	.	1	14	12	stimulus	List2	128080	126577	129584	6	876	T.bmp	T12.bmp@
MI_Revised	2109	2	<?xml version="1.0"?>\n<Clock xmlns:dt="urn:schemas-microsoft-com:datatypes"><Description dt:dt="string">E-Prime Primary Realtime Clock</Description><StartTime><Timestamp dt:dt="int">0</Timestamp><DateUtc dt:dt="string">2010-07-13T16:14:14Z</DateUtc></StartTime><FrequencyChanges><FrequencyChange><Frequency dt:dt="r8">2793120000</Frequency><Timestamp dt:dt="r8">3.09428813180004E+15</Timestamp><Current dt:dt="r8">0</Current><DateUtc dt:dt="string">1969-12-31T20:46:40Z</DateUtc></FrequencyChange></FrequencyChanges></Clock>\n	59.869	1	985703687	07-13-2010	11:14:14	1	1	2	1	48	371611	0	0	48590		0	0	-1	-999999	60573	-999999	60573	16	48590	100	{`}	11983	60573	48574		-1	48574	1	mission	48574	Image	Blocks	13	2	133074	13	.	1	15	13	stimulus	List2	134077	132573	135580	5	760	I.bmp	I13.bmp@
MI_Revised	2109	2	<?xml version="1.0"?>\n<Clock xmlns:dt="urn:schemas-microsoft-com:datatypes"><Description dt:dt="string">E-Prime Primary Realtime Clock</Description><StartTime><Timestamp dt:dt="int">0</Timestamp><DateUtc dt:dt="string">2010-07-13T16:14:14Z</DateUtc></StartTime><FrequencyChanges><FrequencyChange><Frequency dt:dt="r8">2793120000</Frequency><Timestamp dt:dt="r8">3.09428813180004E+15</Timestamp><Current dt:dt="r8">0</Current><DateUtc dt:dt="string">1969-12-31T20:46:40Z</DateUtc></FrequencyChange></FrequencyChanges></Clock>\n	59.869	1	985703687	07-13-2010	11:14:14	1	1	2	1	48	371611	0	0	48590		0	0	-1	-999999	60573	-999999	60573	16	48590	100	{`}	11983	60573	48574		-1	48574	1	mission	48574	Image	Blocks	14	1	139072	14	.	1	16	14	stimulus	List2	140073	138587	141576	6	988	I.bmp	I18.bmp@
MI_Revised	2109	2	<?xml version="1.0"?>\n<Clock xmlns:dt="urn:schemas-microsoft-com:datatypes"><Description dt:dt="string">E-Prime Primary Realtime Clock</Description><StartTime><Timestamp dt:dt="int">0</Timestamp><DateUtc dt:dt="string">2010-07-13T16:14:14Z</DateUtc></StartTime><FrequencyChanges><FrequencyChange><Frequency dt:dt="r8">2793120000</Frequency><Timestamp dt:dt="r8">3.09428813180004E+15</Timestamp><Current dt:dt="r8">0</Current><DateUtc dt:dt="string">1969-12-31T20:46:40Z</DateUtc></FrequencyChange></FrequencyChanges></Clock>\n	59.869	1	985703687	07-13-2010	11:14:14	1	1	2	1	48	371611	0	0	48590		0	0	-1	-999999	60573	-999999	60573	16	48590	100	{`}	11983	60573	48574		-1	48574	1	mission	48574	Image	Blocks	15	2	145084	15	.	1	17	15	stimulus	List2	146086	144583	147573	5	655	T.bmp	T15.bmp@
MI_Revised	2109	2	<?xml version="1.0"?>\n<Clock xmlns:dt="urn:schemas-microsoft-com:datatypes"><Description dt:dt="string">E-Prime Primary Realtime Clock</Description><StartTime><Timestamp dt:dt="int">0</Timestamp><DateUtc dt:dt="string">2010-07-13T16:14:14Z</DateUtc></StartTime><FrequencyChanges><FrequencyChange><Frequency dt:dt="r8">2793120000</Frequency><Timestamp dt:dt="r8">3.09428813180004E+15</Timestamp><Current dt:dt="r8">0</Current><DateUtc dt:dt="string">1969-12-31T20:46:40Z</DateUtc></FrequencyChange></FrequencyChanges></Clock>\n	59.869	1	985703687	07-13-2010	11:14:14	1	1	2	1	48	371611	0	0	48590		0	0	-1	-999999	60573	-999999	60573	16	48590	100	{`}	11983	60573	48574		-1	48574	1	mission	48574	Image	Blocks	16	2	151080	16	.	1	18	16	stimulus	List2	152083	150579	153586	5	818	H.bmp	H11.bmp@
MI_Revised	2109	2	<?xml version="1.0"?>\n<Clock xmlns:dt="urn:schemas-microsoft-com:datatypes"><Description dt:dt="string">E-Prime Primary Realtime Clock</Description><StartTime><Timestamp dt:dt="int">0</Timestamp><DateUtc dt:dt="string">2010-07-13T16:14:14Z</DateUtc></StartTime><FrequencyChanges><FrequencyChange><Frequency dt:dt="r8">2793120000</Frequency><Timestamp dt:dt="r8">3.09428813180004E+15</Timestamp><Current dt:dt="r8">0</Current><DateUtc dt:dt="string">1969-12-31T20:46:40Z</DateUtc></FrequencyChange></FrequencyChanges></Clock>\n	59.869	1	985703687	07-13-2010	11:14:14	1	1	2	1	48	371611	0	0	48590		0	0	-1	-999999	60573	-999999	60573	16	48590	100	{`}	11983	60573	48574		-1	48574	1	mission	48574	Image	Blocks	17	2	157077	17	.	1	19	17	stimulus	List2	158079	156576	159582	5	934	I.bmp	S15.bmp@
MI_Revised	2109	2	<?xml version="1.0"?>\n<Clock xmlns:dt="urn:schemas-microsoft-com:datatypes"><Description dt:dt="string">E-Prime Primary Realtime Clock</Description><StartTime><Timestamp dt:dt="int">0</Timestamp><DateUtc dt:dt="string">2010-07-13T16:14:14Z</DateUtc></StartTime><FrequencyChanges><FrequencyChange><Frequency dt:dt="r8">2793120000</Frequency><Timestamp dt:dt="r8">3.09428813180004E+15</Timestamp><Current dt:dt="r8">0</Current><DateUtc dt:dt="string">1969-12-31T20:46:40Z</DateUtc></FrequencyChange></FrequencyChanges></Clock>\n	59.869	1	985703687	07-13-2010	11:14:14	1	1	2	1	48	371611	0	0	48590		0	0	-1	-999999	60573	-999999	60573	16	48590	100	{`}	11983	60573	48574		-1	48574	1	mission	48574	Image	Blocks	18	2	163073	18	.	1	20	18	stimulus	List2	164075	162572	165579	5	897	L.bmp	S14.bmp@
MI_Revised	2109	2	<?xml version="1.0"?>\n<Clock xmlns:dt="urn:schemas-microsoft-com:datatypes"><Description dt:dt="string">E-Prime Primary Realtime Clock</Description><StartTime><Timestamp dt:dt="int">0</Timestamp><DateUtc dt:dt="string">2010-07-13T16:14:14Z</DateUtc></StartTime><FrequencyChanges><FrequencyChange><Frequency dt:dt="r8">2793120000</Frequency><Timestamp dt:dt="r8">3.09428813180004E+15</Timestamp><Current dt:dt="r8">0</Current><DateUtc dt:dt="string">1969-12-31T20:46:40Z</DateUtc></FrequencyChange></FrequencyChanges></Clock>\n	59.869	1	985703687	07-13-2010	11:14:14	1	1	2	1	48	371611	0	0	48590		0	0	-1	-999999	60573	-999999	60573	16	48590	100	{`}	11983	60573	48574		-1	48574	1	mission	48574	Image	Blocks	19	1	169086	19	.	1	21	19	stimulus	List2	170072	168585	171575	6	853	U.bmp	S16.bmp@
MI_Revised	2109	2	<?xml version="1.0"?>\n<Clock xmlns:dt="urn:schemas-microsoft-com:datatypes"><Description dt:dt="string">E-Prime Primary Realtime Clock</Description><StartTime><Timestamp dt:dt="int">0</Timestamp><DateUtc dt:dt="string">2010-07-13T16:14:14Z</DateUtc></StartTime><FrequencyChanges><FrequencyChange><Frequency dt:dt="r8">2793120000</Frequency><Timestamp dt:dt="r8">3.09428813180004E+15</Timestamp><Current dt:dt="r8">0</Current><DateUtc dt:dt="string">1969-12-31T20:46:40Z</DateUtc></FrequencyChange></FrequencyChanges></Clock>\n	59.869	1	985703687	07-13-2010	11:14:14	1	1	2	1	48	371611	0	0	48590		0	0	-1	-999999	60573	-999999	60573	16	48590	100	{`}	11983	60573	48574		-1	48574	1	mission	48574	Image	Blocks	20	2	175083	20	.	1	22	20	stimulus	List2	176085	174582	177572	5	896	H.bmp	S17.bmp@
MI_Revised	2109	2	<?xml version="1.0"?>\n<Clock xmlns:dt="urn:schemas-microsoft-com:datatypes"><Description dt:dt="string">E-Prime Primary Realtime Clock</Description><StartTime><Timestamp dt:dt="int">0</Timestamp><DateUtc dt:dt="string">2010-07-13T16:14:14Z</DateUtc></StartTime><FrequencyChanges><FrequencyChange><Frequency dt:dt="r8">2793120000</Frequency><Timestamp dt:dt="r8">3.09428813180004E+15</Timestamp><Current dt:dt="r8">0</Current><DateUtc dt:dt="string">1969-12-31T20:46:40Z</DateUtc></FrequencyChange></FrequencyChanges></Clock>\n	59.869	1	985703687	07-13-2010	11:14:14	1	1	2	1	48	371611	0	0	48590		0	0	-1	-999999	60573	-999999	60573	16	48590	100	{`}	11983	60573	48574		-1	48574	1	mission	48574	Image	Blocks	21	2	181079	21	.	1	23	21	stimulus	List2	182081	180578	183585	5	803	T.bmp	S15.bmp@
MI_Revised	2109	2	<?xml version="1.0"?>\n<Clock xmlns:dt="urn:schemas-microsoft-com:datatypes"><Description dt:dt="string">E-Prime Primary Realtime Clock</Description><StartTime><Timestamp dt:dt="int">0</Timestamp><DateUtc dt:dt="string">2010-07-13T16:14:14Z</DateUtc></StartTime><FrequencyChanges><FrequencyChange><Frequency dt:dt="r8">2793120000</Frequency><Timestamp dt:dt="r8">3.09428813180004E+15</Timestamp><Current dt:dt="r8">0</Current><DateUtc dt:dt="string">1969-12-31T20:46:40Z</DateUtc></FrequencyChange></FrequencyChanges></Clock>\n	59.869	1	985703687	07-13-2010	11:14:14	1	1	2	1	48	371611	0	0	48590		0	0	-1	-999999	60573	-999999	60573	16	48590	100	{`}	11983	60573	48574		-1	48574	1	mission	48574	Image	Blocks	22	1	187076	22	.	1	24	22	stimulus	List2	188078	186574	189581	6	831	L.bmp	S16.bmp@
MI_Revised	2109	2	<?xml version="1.0"?>\n<Clock xmlns:dt="urn:schemas-microsoft-com:datatypes"><Description dt:dt="string">E-Prime Primary Realtime Clock</Description><StartTime><Timestamp dt:dt="int">0</Timestamp><DateUtc dt:dt="string">2010-07-13T16:14:14Z</DateUtc></StartTime><FrequencyChanges><FrequencyChange><Frequency dt:dt="r8">2793120000</Frequency><Timestamp dt:dt="r8">3.09428813180004E+15</Timestamp><Current dt:dt="r8">0</Current><DateUtc dt:dt="string">1969-12-31T20:46:40Z</DateUtc></FrequencyChange></FrequencyChanges></Clock>\n	59.869	1	985703687	07-13-2010	11:14:14	1	1	2	1	48	371611	0	0	48590		0	0	-1	-999999	60573	-999999	60573	16	48590	100	{`}	11983	60573	48574		-1	48574	1	mission	48574	Image	Blocks	23	2	193072	23	.	1	25	23	stimulus	List2	194074	192572	195577	5	1243	U.bmp	S14.bmp@
MI_Revised	2109	2	<?xml version="1.0"?>\n<Clock xmlns:dt="urn:schemas-microsoft-com:datatypes"><Description dt:dt="string">E-Prime Primary Realtime Clock</Description><StartTime><Timestamp dt:dt="int">0</Timestamp><DateUtc dt:dt="string">2010-07-13T16:14:14Z</DateUtc></StartTime><FrequencyChanges><FrequencyChange><Frequency dt:dt="r8">2793120000</Frequency><Timestamp dt:dt="r8">3.09428813180004E+15</Timestamp><Current dt:dt="r8">0</Current><DateUtc dt:dt="string">1969-12-31T20:46:40Z</DateUtc></FrequencyChange></FrequencyChanges></Clock>\n	59.869	1	985703687	07-13-2010	11:14:14	1	1	2	1	48	371611	0	0	48590		0	0	-1	-999999	60573	-999999	60573	16	48590	100	{`}	11983	60573	48574		-1	48574	1	mission	48574	Image	Blocks	24	1	199085	24	.	1	26	24	stimulus	List2	200072	198584	201574	6	830	H.bmp	S15.bmp@
MI_Revised	2109	2	<?xml version="1.0"?>\n<Clock xmlns:dt="urn:schemas-microsoft-com:datatypes"><Description dt:dt="string">E-Prime Primary Realtime Clock</Description><StartTime><Timestamp dt:dt="int">0</Timestamp><DateUtc dt:dt="string">2010-07-13T16:14:14Z</DateUtc></StartTime><FrequencyChanges><FrequencyChange><Frequency dt:dt="r8">2793120000</Frequency><Timestamp dt:dt="r8">3.09428813180004E+15</Timestamp><Current dt:dt="r8">0</Current><DateUtc dt:dt="string">1969-12-31T20:46:40Z</DateUtc></FrequencyChange></FrequencyChanges></Clock>\n	59.869	1	985703687	07-13-2010	11:14:14	1	1	2	1	48	371611	0	0	48590		0	0	-1	-999999	60573	-999999	60573	16	48590	100	{`}	11983	60573	48574		-1	48574	1	mission	48574	Image	Blocks	25	1	205082	25	.	1	27	25	stimulus	List2	206084	204580	207587	6	873	L.bmp	L13.bmp@
MI_Revised	2109	2	<?xml version="1.0"?>\n<Clock xmlns:dt="urn:schemas-microsoft-com:datatypes"><Description dt:dt="string">E-Prime Primary Realtime Clock</Description><StartTime><Timestamp dt:dt="int">0</Timestamp><DateUtc dt:dt="string">2010-07-13T16:14:14Z</DateUtc></StartTime><FrequencyChanges><FrequencyChange><Frequency dt:dt="r8">2793120000</Frequency><Timestamp dt:dt="r8">3.09428813180004E+15</Timestamp><Current dt:dt="r8">0</Current><DateUtc dt:dt="string">1969-12-31T20:46:40Z</DateUtc></FrequencyChange></FrequencyChanges></Clock>\n	59.869	1	985703687	07-13-2010	11:14:14	1	1	2	1	48	371611	0	0	48590		0	0	-1	-999999	60573	-999999	60573	16	48590	100	{`}	11983	60573	48574		-1	48574	1	mission	48574	Image	Blocks	26	2	211078	26	.	1	28	26	stimulus	List2	212080	210577	213583	5	749	T.bmp	T16.bmp@
MI_Revised	2109	2	<?xml version="1.0"?>\n<Clock xmlns:dt="urn:schemas-microsoft-com:datatypes"><Description dt:dt="string">E-Prime Primary Realtime Clock</Description><StartTime><Timestamp dt:dt="int">0</Timestamp><DateUtc dt:dt="string">2010-07-13T16:14:14Z</DateUtc></StartTime><FrequencyChanges><FrequencyChange><Frequency dt:dt="r8">2793120000</Frequency><Timestamp dt:dt="r8">3.09428813180004E+15</Timestamp><Current dt:dt="r8">0</Current><DateUtc dt:dt="string">1969-12-31T20:46:40Z</DateUtc></FrequencyChange></FrequencyChanges></Clock>\n	59.869	1	985703687	07-13-2010	11:14:14	1	1	2	1	48	371611	0	0	48590		0	0	-1	-999999	60573	-999999	60573	16	48590	100	{`}	11983	60573	48574		-1	48574	1	mission	48574	Image	Blocks	27	1	217074	27	.	1	29	27	stimulus	List2	218077	216573	219580	6	776	H.bmp	H12.bmp@
MI_Revised	2109	2	<?xml version="1.0"?>\n<Clock xmlns:dt="urn:schemas-microsoft-com:datatypes"><Description dt:dt="string">E-Prime Primary Realtime Clock</Description><StartTime><Timestamp dt:dt="int">0</Timestamp><DateUtc dt:dt="string">2010-07-13T16:14:14Z</DateUtc></StartTime><FrequencyChanges><FrequencyChange><Frequency dt:dt="r8">2793120000</Frequency><Timestamp dt:dt="r8">3.09428813180004E+15</Timestamp><Current dt:dt="r8">0</Current><DateUtc dt:dt="string">1969-12-31T20:46:40Z</DateUtc></FrequencyChange></FrequencyChanges></Clock>\n	59.869	1	985703687	07-13-2010	11:14:14	1	1	2	1	48	371611	0	0	48590		0	0	-1	-999999	60573	-999999	60573	16	48590	100	{`}	11983	60573	48574		-1	48574	1	mission	48574	Image	Blocks	28	2	223072	28	.	1	30	28	stimulus	List2	224073	222586	225576	5	779	U.bmp	U14.bmp@
MI_Revised	2109	2	<?xml version="1.0"?>\n<Clock xmlns:dt="urn:schemas-microsoft-com:datatypes"><Description dt:dt="string">E-Prime Primary Realtime Clock</Description><StartTime><Timestamp dt:dt="int">0</Timestamp><DateUtc dt:dt="string">2010-07-13T16:14:14Z</DateUtc></StartTime><FrequencyChanges><FrequencyChange><Frequency dt:dt="r8">2793120000</Frequency><Timestamp dt:dt="r8">3.09428813180004E+15</Timestamp><Current dt:dt="r8">0</Current><DateUtc dt:dt="string">1969-12-31T20:46:40Z</DateUtc></FrequencyChange></FrequencyChanges></Clock>\n	59.869	1	985703687	07-13-2010	11:14:14	1	1	2	1	48	371611	0	0	48590		0	0	-1	-999999	60573	-999999	60573	16	48590	100	{`}	11983	60573	48574		-1	48574	1	mission	48574	Image	Blocks	29	2	229084	29	.	1	31	29	stimulus	List2	230086	228583	231573	5	878	H.bmp	H17.bmp@
MI_Revised	2109	2	<?xml version="1.0"?>\n<Clock xmlns:dt="urn:schemas-microsoft-com:datatypes"><Description dt:dt="string">E-Prime Primary Realtime Clock</Description><StartTime><Timestamp dt:dt="int">0</Timestamp><DateUtc dt:dt="string">2010-07-13T16:14:14Z</DateUtc></StartTime><FrequencyChanges><FrequencyChange><Frequency dt:dt="r8">2793120000</Frequency><Timestamp dt:dt="r8">3.09428813180004E+15</Timestamp><Current dt:dt="r8">0</Current><DateUtc dt:dt="string">1969-12-31T20:46:40Z</DateUtc></FrequencyChange></FrequencyChanges></Clock>\n	59.869	1	985703687	07-13-2010	11:14:14	1	1	2	1	48	371611	0	0	48590		0	0	-1	-999999	60573	-999999	60573	16	48590	100	{`}	11983	60573	48574		-1	48574	1	mission	48574	Image	Blocks	30	1	235080	30	.	1	32	30	stimulus	List2	236082	234579	237586	6	825	U.bmp	U17.bmp@
MI_Revised	2109	2	<?xml version="1.0"?>\n<Clock xmlns:dt="urn:schemas-microsoft-com:datatypes"><Description dt:dt="string">E-Prime Primary Realtime Clock</Description><StartTime><Timestamp dt:dt="int">0</Timestamp><DateUtc dt:dt="string">2010-07-13T16:14:14Z</DateUtc></StartTime><FrequencyChanges><FrequencyChange><Frequency dt:dt="r8">2793120000</Frequency><Timestamp dt:dt="r8">3.09428813180004E+15</Timestamp><Current dt:dt="r8">0</Current><DateUtc dt:dt="string">1969-12-31T20:46:40Z</DateUtc></FrequencyChange></FrequencyChanges></Clock>\n	59.869	1	985703687	07-13-2010	11:14:14	1	1	2	1	48	371611	0	0	48590		0	0	-1	-999999	60573	-999999	60573	16	48590	100	{`}	11983	60573	48574		-1	48574	1	mission	48574	Image	Blocks	31	2	241077	31	.	1	33	31	stimulus	List2	242079	240576	243582	5	741	L.bmp	L11.bmp@
MI_Revised	2109	2	<?xml version="1.0"?>\n<Clock xmlns:dt="urn:schemas-microsoft-com:datatypes"><Description dt:dt="string">E-Prime Primary Realtime Clock</Description><StartTime><Timestamp dt:dt="int">0</Timestamp><DateUtc dt:dt="string">2010-07-13T16:14:14Z</DateUtc></StartTime><FrequencyChanges><FrequencyChange><Frequency dt:dt="r8">2793120000</Frequency><Timestamp dt:dt="r8">3.09428813180004E+15</Timestamp><Current dt:dt="r8">0</Current><DateUtc dt:dt="string">1969-12-31T20:46:40Z</DateUtc></FrequencyChange></FrequencyChanges></Clock>\n	59.869	1	985703687	07-13-2010	11:14:14	1	1	2	1	48	371611	0	0	48590		0	0	-1	-999999	60573	-999999	60573	16	48590	100	{`}	11983	60573	48574		-1	48574	1	mission	48574	Image	Blocks	32	1	247073	32	.	1	34	32	stimulus	List2	248075	246572	249579	6	640	T.bmp	T17.bmp@
MI_Revised	2109	2	<?xml version="1.0"?>\n<Clock xmlns:dt="urn:schemas-microsoft-com:datatypes"><Description dt:dt="string">E-Prime Primary Realtime Clock</Description><StartTime><Timestamp dt:dt="int">0</Timestamp><DateUtc dt:dt="string">2010-07-13T16:14:14Z</DateUtc></StartTime><FrequencyChanges><FrequencyChange><Frequency dt:dt="r8">2793120000</Frequency><Timestamp dt:dt="r8">3.09428813180004E+15</Timestamp><Current dt:dt="r8">0</Current><DateUtc dt:dt="string">1969-12-31T20:46:40Z</DateUtc></FrequencyChange></FrequencyChanges></Clock>\n	59.869	1	985703687	07-13-2010	11:14:14	1	1	2	1	48	371611	0	0	48590		0	0	-1	-999999	60573	-999999	60573	16	48590	100	{`}	11983	60573	48574		-1	48574	1	mission	48574	Image	Blocks	33	1	253086	33	.	1	35	33	stimulus	List2	254072	252585	255575	6	1156	L.bmp	S17.bmp@
MI_Revised	2109	2	<?xml version="1.0"?>\n<Clock xmlns:dt="urn:schemas-microsoft-com:datatypes"><Description dt:dt="string">E-Prime Primary Realtime Clock</Description><StartTime><Timestamp dt:dt="int">0</Timestamp><DateUtc dt:dt="string">2010-07-13T16:14:14Z</DateUtc></StartTime><FrequencyChanges><FrequencyChange><Frequency dt:dt="r8">2793120000</Frequency><Timestamp dt:dt="r8">3.09428813180004E+15</Timestamp><Current dt:dt="r8">0</Current><DateUtc dt:dt="string">1969-12-31T20:46:40Z</DateUtc></FrequencyChange></FrequencyChanges></Clock>\n	59.869	1	985703687	07-13-2010	11:14:14	1	1	2	1	48	371611	0	0	48590		0	0	-1	-999999	60573	-999999	60573	16	48590	100	{`}	11983	60573	48574		-1	48574	1	mission	48574	Image	Blocks	34	2	259083	34	.	1	36	34	stimulus	List2	260085	258582	261572	5	903	T.bmp	S16.bmp@
MI_Revised	2109	2	<?xml version="1.0"?>\n<Clock xmlns:dt="urn:schemas-microsoft-com:datatypes"><Description dt:dt="string">E-Prime Primary Realtime Clock</Description><StartTime><Timestamp dt:dt="int">0</Timestamp><DateUtc dt:dt="string">2010-07-13T16:14:14Z</DateUtc></StartTime><FrequencyChanges><FrequencyChange><Frequency dt:dt="r8">2793120000</Frequency><Timestamp dt:dt="r8">3.09428813180004E+15</Timestamp><Current dt:dt="r8">0</Current><DateUtc dt:dt="string">1969-12-31T20:46:40Z</DateUtc></FrequencyChange></FrequencyChanges></Clock>\n	59.869	1	985703687	07-13-2010	11:14:14	1	1	2	1	48	371611	0	0	48590		0	0	-1	-999999	60573	-999999	60573	16	48590	100	{`}	11983	60573	48574		-1	48574	1	mission	48574	Image	Blocks	35	1	265079	35	.	1	37	35	stimulus	List2	266081	264578	267584	6	1051	I.bmp	S12.bmp@
MI_Revised	2109	2	<?xml version="1.0"?>\n<Clock xmlns:dt="urn:schemas-microsoft-com:datatypes"><Description dt:dt="string">E-Prime Primary Realtime Clock</Description><StartTime><Timestamp dt:dt="int">0</Timestamp><DateUtc dt:dt="string">2010-07-13T16:14:14Z</DateUtc></StartTime><FrequencyChanges><FrequencyChange><Frequency dt:dt="r8">2793120000</Frequency><Timestamp dt:dt="r8">3.09428813180004E+15</Timestamp><Current dt:dt="r8">0</Current><DateUtc dt:dt="string">1969-12-31T20:46:40Z</DateUtc></FrequencyChange></FrequencyChanges></Clock>\n	59.869	1	985703687	07-13-2010	11:14:14	1	1	2	1	48	371611	0	0	48590		0	0	-1	-999999	60573	-999999	60573	16	48590	100	{`}	11983	60573	48574		-1	48574	1	mission	48574	Image	Blocks	36	2	271075	36	.	1	38	36	stimulus	List2	272078	270574	273581	5	1342	H.bmp	S11.bmp@
MI_Revised	2109	2	<?xml version="1.0"?>\n<Clock xmlns:dt="urn:schemas-microsoft-com:datatypes"><Description dt:dt="string">E-Prime Primary Realtime Clock</Description><StartTime><Timestamp dt:dt="int">0</Timestamp><DateUtc dt:dt="string">2010-07-13T16:14:14Z</DateUtc></StartTime><FrequencyChanges><FrequencyChange><Frequency dt:dt="r8">2793120000</Frequency><Timestamp dt:dt="r8">3.09428813180004E+15</Timestamp><Current dt:dt="r8">0</Current><DateUtc dt:dt="string">1969-12-31T20:46:40Z</DateUtc></FrequencyChange></FrequencyChanges></Clock>\n	59.869	1	985703687	07-13-2010	11:14:14	1	1	2	1	48	371611	0	0	48590		0	0	-1	-999999	60573	-999999	60573	16	48590	100	{`}	11983	60573	48574		-1	48574	1	mission	48574	Image	Blocks	37	2	277072	37	.	1	39	37	stimulus	List2	278074	276572	279577	5	1074	L.bmp	S12.bmp@
MI_Revised	2109	2	<?xml version="1.0"?>\n<Clock xmlns:dt="urn:schemas-microsoft-com:datatypes"><Description dt:dt="string">E-Prime Primary Realtime Clock</Description><StartTime><Timestamp dt:dt="int">0</Timestamp><DateUtc dt:dt="string">2010-07-13T16:14:14Z</DateUtc></StartTime><FrequencyChanges><FrequencyChange><Frequency dt:dt="r8">2793120000</Frequency><Timestamp dt:dt="r8">3.09428813180004E+15</Timestamp><Current dt:dt="r8">0</Current><DateUtc dt:dt="string">1969-12-31T20:46:40Z</DateUtc></FrequencyChange></FrequencyChanges></Clock>\n	59.869	1	985703687	07-13-2010	11:14:14	1	1	2	1	48	371611	0	0	48590		0	0	-1	-999999	60573	-999999	60573	16	48590	100	{`}	11983	60573	48574		-1	48574	1	mission	48574	Image	Blocks	38	1	283085	38	.	1	40	38	stimulus	List2	284072	282584	285574	6	957	H.bmp	S18.bmp@
MI_Revised	2109	2	<?xml version="1.0"?>\n<Clock xmlns:dt="urn:schemas-microsoft-com:datatypes"><Description dt:dt="string">E-Prime Primary Realtime Clock</Description><StartTime><Timestamp dt:dt="int">0</Timestamp><DateUtc dt:dt="string">2010-07-13T16:14:14Z</DateUtc></StartTime><FrequencyChanges><FrequencyChange><Frequency dt:dt="r8">2793120000</Frequency><Timestamp dt:dt="r8">3.09428813180004E+15</Timestamp><Current dt:dt="r8">0</Current><DateUtc dt:dt="string">1969-12-31T20:46:40Z</DateUtc></FrequencyChange></FrequencyChanges></Clock>\n	59.869	1	985703687	07-13-2010	11:14:14	1	1	2	1	48	371611	0	0	48590		0	0	-1	-999999	60573	-999999	60573	16	48590	100	{`}	11983	60573	48574		-1	48574	1	mission	48574	Image	Blocks	39	2	289081	39	.	1	41	39	stimulus	List2	290084	288580	291587	5	1704	I.bmp	S13.bmp@
MI_Revised	2109	2	<?xml version="1.0"?>\n<Clock xmlns:dt="urn:schemas-microsoft-com:datatypes"><Description dt:dt="string">E-Prime Primary Realtime Clock</Description><StartTime><Timestamp dt:dt="int">0</Timestamp><DateUtc dt:dt="string">2010-07-13T16:14:14Z</DateUtc></StartTime><FrequencyChanges><FrequencyChange><Frequency dt:dt="r8">2793120000</Frequency><Timestamp dt:dt="r8">3.09428813180004E+15</Timestamp><Current dt:dt="r8">0</Current><DateUtc dt:dt="string">1969-12-31T20:46:40Z</DateUtc></FrequencyChange></FrequencyChanges></Clock>\n	59.869	1	985703687	07-13-2010	11:14:14	1	1	2	1	48	371611	0	0	48590		0	0	-1	-999999	60573	-999999	60573	16	48590	100	{`}	11983	60573	48574		-1	48574	1	mission	48574	Image	Blocks	40	1	295078	40	.	1	42	40	stimulus	List2	296080	294577	297583	6	1236	U.bmp	S13.bmp@
MI_Revised	2109	2	<?xml version="1.0"?>\n<Clock xmlns:dt="urn:schemas-microsoft-com:datatypes"><Description dt:dt="string">E-Prime Primary Realtime Clock</Description><StartTime><Timestamp dt:dt="int">0</Timestamp><DateUtc dt:dt="string">2010-07-13T16:14:14Z</DateUtc></StartTime><FrequencyChanges><FrequencyChange><Frequency dt:dt="r8">2793120000</Frequency><Timestamp dt:dt="r8">3.09428813180004E+15</Timestamp><Current dt:dt="r8">0</Current><DateUtc dt:dt="string">1969-12-31T20:46:40Z</DateUtc></FrequencyChange></FrequencyChanges></Clock>\n	59.869	1	985703687	07-13-2010	11:14:14	1	1	2	1	48	371611	0	0	48590		0	0	-1	-999999	60573	-999999	60573	16	48590	100	{`}	11983	60573	48574		-1	48574	1	mission	48574	Image	Blocks	41	2	301074	41	.	1	43	41	stimulus	List2	302076	300573	303580	5	975	L.bmp	L15.bmp@
MI_Revised	2109	2	<?xml version="1.0"?>\n<Clock xmlns:dt="urn:schemas-microsoft-com:datatypes"><Description dt:dt="string">E-Prime Primary Realtime Clock</Description><StartTime><Timestamp dt:dt="int">0</Timestamp><DateUtc dt:dt="string">2010-07-13T16:14:14Z</DateUtc></StartTime><FrequencyChanges><FrequencyChange><Frequency dt:dt="r8">2793120000</Frequency><Timestamp dt:dt="r8">3.09428813180004E+15</Timestamp><Current dt:dt="r8">0</Current><DateUtc dt:dt="string">1969-12-31T20:46:40Z</DateUtc></FrequencyChange></FrequencyChanges></Clock>\n	59.869	1	985703687	07-13-2010	11:14:14	1	1	2	1	48	371611	0	0	48590		0	0	-1	-999999	60573	-999999	60573	16	48590	100	{`}	11983	60573	48574		-1	48574	1	mission	48574	Image	Blocks	42	2	307072	42	.	1	44	42	stimulus	List2	308073	306586	309576	5	995	I.bmp	I15.bmp@
MI_Revised	2109	2	<?xml version="1.0"?>\n<Clock xmlns:dt="urn:schemas-microsoft-com:datatypes"><Description dt:dt="string">E-Prime Primary Realtime Clock</Description><StartTime><Timestamp dt:dt="int">0</Timestamp><DateUtc dt:dt="string">2010-07-13T16:14:14Z</DateUtc></StartTime><FrequencyChanges><FrequencyChange><Frequency dt:dt="r8">2793120000</Frequency><Timestamp dt:dt="r8">3.09428813180004E+15</Timestamp><Current dt:dt="r8">0</Current><DateUtc dt:dt="string">1969-12-31T20:46:40Z</DateUtc></FrequencyChange></FrequencyChanges></Clock>\n	59.869	1	985703687	07-13-2010	11:14:14	1	1	2	1	48	371611	0	0	48590		0	0	-1	-999999	60573	-999999	60573	16	48590	100	{`}	11983	60573	48574		-1	48574	1	mission	48574	Image	Blocks	43	1	313084	43	.	1	45	43	stimulus	List2	314086	312583	315572	6	807	U.bmp	U15.bmp@
MI_Revised	2109	2	<?xml version="1.0"?>\n<Clock xmlns:dt="urn:schemas-microsoft-com:datatypes"><Description dt:dt="string">E-Prime Primary Realtime Clock</Description><StartTime><Timestamp dt:dt="int">0</Timestamp><DateUtc dt:dt="string">2010-07-13T16:14:14Z</DateUtc></StartTime><FrequencyChanges><FrequencyChange><Frequency dt:dt="r8">2793120000</Frequency><Timestamp dt:dt="r8">3.09428813180004E+15</Timestamp><Current dt:dt="r8">0</Current><DateUtc dt:dt="string">1969-12-31T20:46:40Z</DateUtc></FrequencyChange></FrequencyChanges></Clock>\n	59.869	1	985703687	07-13-2010	11:14:14	1	1	2	1	48	371611	0	0	48590		0	0	-1	-999999	60573	-999999	60573	16	48590	100	{`}	11983	60573	48574		-1	48574	1	mission	48574	Image	Blocks	44	2	319080	44	.	1	46	44	stimulus	List2	320082	318579	321586	5	880	T.bmp	T18.bmp@
MI_Revised	2109	2	<?xml version="1.0"?>\n<Clock xmlns:dt="urn:schemas-microsoft-com:datatypes"><Description dt:dt="string">E-Prime Primary Realtime Clock</Description><StartTime><Timestamp dt:dt="int">0</Timestamp><DateUtc dt:dt="string">2010-07-13T16:14:14Z</DateUtc></StartTime><FrequencyChanges><FrequencyChange><Frequency dt:dt="r8">2793120000</Frequency><Timestamp dt:dt="r8">3.09428813180004E+15</Timestamp><Current dt:dt="r8">0</Current><DateUtc dt:dt="string">1969-12-31T20:46:40Z</DateUtc></FrequencyChange></FrequencyChanges></Clock>\n	59.869	1	985703687	07-13-2010	11:14:14	1	1	2	1	48	371611	0	0	48590		0	0	-1	-999999	60573	-999999	60573	16	48590	100	{`}	11983	60573	48574		-1	48574	1	mission	48574	Image	Blocks	45	1	325077	45	.	1	47	45	stimulus	List2	326079	324575	327582	6	876	T.bmp	T14.bmp@
MI_Revised	2109	2	<?xml version="1.0"?>\n<Clock xmlns:dt="urn:schemas-microsoft-com:datatypes"><Description dt:dt="string">E-Prime Primary Realtime Clock</Description><StartTime><Timestamp dt:dt="int">0</Timestamp><DateUtc dt:dt="string">2010-07-13T16:14:14Z</DateUtc></StartTime><FrequencyChanges><FrequencyChange><Frequency dt:dt="r8">2793120000</Frequency><Timestamp dt:dt="r8">3.09428813180004E+15</Timestamp><Current dt:dt="r8">0</Current><DateUtc dt:dt="string">1969-12-31T20:46:40Z</DateUtc></FrequencyChange></FrequencyChanges></Clock>\n	59.869	1	985703687	07-13-2010	11:14:14	1	1	2	1	48	371611	0	0	48590		0	0	-1	-999999	60573	-999999	60573	16	48590	100	{`}	11983	60573	48574		-1	48574	1	mission	48574	Image	Blocks	46	2	331073	46	.	1	48	46	stimulus	List2	332075	330572	333578	5	848	U.bmp	U11.bmp@
MI_Revised	2109	2	<?xml version="1.0"?>\n<Clock xmlns:dt="urn:schemas-microsoft-com:datatypes"><Description dt:dt="string">E-Prime Primary Realtime Clock</Description><StartTime><Timestamp dt:dt="int">0</Timestamp><DateUtc dt:dt="string">2010-07-13T16:14:14Z</DateUtc></StartTime><FrequencyChanges><FrequencyChange><Frequency dt:dt="r8">2793120000</Frequency><Timestamp dt:dt="r8">3.09428813180004E+15</Timestamp><Current dt:dt="r8">0</Current><DateUtc dt:dt="string">1969-12-31T20:46:40Z</DateUtc></FrequencyChange></FrequencyChanges></Clock>\n	59.869	1	985703687	07-13-2010	11:14:14	1	1	2	1	48	371611	0	0	48590		0	0	-1	-999999	60573	-999999	60573	16	48590	100	{`}	11983	60573	48574		-1	48574	1	mission	48574	Image	Blocks	47	1	337086	47	.	1	49	47	stimulus	List2	338072	336585	339575	6	739	I.bmp	I11.bmp@
MI_Revised	2109	2	<?xml version="1.0"?>\n<Clock xmlns:dt="urn:schemas-microsoft-com:datatypes"><Description dt:dt="string">E-Prime Primary Realtime Clock</Description><StartTime><Timestamp dt:dt="int">0</Timestamp><DateUtc dt:dt="string">2010-07-13T16:14:14Z</DateUtc></StartTime><FrequencyChanges><FrequencyChange><Frequency dt:dt="r8">2793120000</Frequency><Timestamp dt:dt="r8">3.09428813180004E+15</Timestamp><Current dt:dt="r8">0</Current><DateUtc dt:dt="string">1969-12-31T20:46:40Z</DateUtc></FrequencyChange></FrequencyChanges></Clock>\n	59.869	1	985703687	07-13-2010	11:14:14	1	1	2	1	48	371611	0	0	48590		0	0	-1	-999999	60573	-999999	60573	16	48590	100	{`}	11983	60573	48574		-1	48574	1	mission	48574	Image	Blocks	48	1	343082	48	.	1	50	48	stimulus	List2	344085	342581	345572	6	862	H.bmp	H14.bmp@
MI_Revised	2109	2	<?xml version="1.0"?>\n<Clock xmlns:dt="urn:schemas-microsoft-com:datatypes"><Description dt:dt="string">E-Prime Primary Realtime Clock</Description><StartTime><Timestamp dt:dt="int">0</Timestamp><DateUtc dt:dt="string">2010-07-13T16:14:14Z</DateUtc></StartTime><FrequencyChanges><FrequencyChange><Frequency dt:dt="r8">2793120000</Frequency><Timestamp dt:dt="r8">3.09428813180004E+15</Timestamp><Current dt:dt="r8">0</Current><DateUtc dt:dt="string">1969-12-31T20:46:40Z</DateUtc></FrequencyChange></FrequencyChanges></Clock>\n	59.869	1	985703687	07-13-2010	11:14:14	2	2	2	2	48	723271	0	0	375804		0	0	-1	-999999	412458	-999999	412458	1	375804	100	{`}	36654	412458	375803		-1	375803	1	mission	375803	Image2	Blocks	1	2	412968	.	1	1	53	1	stimulus	List2	413970	412467	415457	6	2681	I.bmp	S15.bmp@
MI_Revised	2109	2	<?xml version="1.0"?>\n<Clock xmlns:dt="urn:schemas-microsoft-com:datatypes"><Description dt:dt="string">E-Prime Primary Realtime Clock</Description><StartTime><Timestamp dt:dt="int">0</Timestamp><DateUtc dt:dt="string">2010-07-13T16:14:14Z</DateUtc></StartTime><FrequencyChanges><FrequencyChange><Frequency dt:dt="r8">2793120000</Frequency><Timestamp dt:dt="r8">3.09428813180004E+15</Timestamp><Current dt:dt="r8">0</Current><DateUtc dt:dt="string">1969-12-31T20:46:40Z</DateUtc></FrequencyChange></FrequencyChanges></Clock>\n	59.869	1	985703687	07-13-2010	11:14:14	2	2	2	2	48	723271	0	0	375804		0	0	-1	-999999	412458	-999999	412458	1	375804	100	{`}	36654	412458	375803		-1	375803	1	mission	375803	Image2	Blocks	2	2	418965	.	2	1	54	2	stimulus	List2	419967	418463	421470	5	963	L.bmp	S14.bmp@
MI_Revised	2109	2	<?xml version="1.0"?>\n<Clock xmlns:dt="urn:schemas-microsoft-com:datatypes"><Description dt:dt="string">E-Prime Primary Realtime Clock</Description><StartTime><Timestamp dt:dt="int">0</Timestamp><DateUtc dt:dt="string">2010-07-13T16:14:14Z</DateUtc></StartTime><FrequencyChanges><FrequencyChange><Frequency dt:dt="r8">2793120000</Frequency><Timestamp dt:dt="r8">3.09428813180004E+15</Timestamp><Current dt:dt="r8">0</Current><DateUtc dt:dt="string">1969-12-31T20:46:40Z</DateUtc></FrequencyChange></FrequencyChanges></Clock>\n	59.869	1	985703687	07-13-2010	11:14:14	2	2	2	2	48	723271	0	0	375804		0	0	-1	-999999	412458	-999999	412458	1	375804	100	{`}	36654	412458	375803		-1	375803	1	mission	375803	Image2	Blocks	3	1	424961	.	3	1	55	3	stimulus	List2	425963	424460	427466	6	775	U.bmp	S16.bmp@
MI_Revised	2109	2	<?xml version="1.0"?>\n<Clock xmlns:dt="urn:schemas-microsoft-com:datatypes"><Description dt:dt="string">E-Prime Primary Realtime Clock</Description><StartTime><Timestamp dt:dt="int">0</Timestamp><DateUtc dt:dt="string">2010-07-13T16:14:14Z</DateUtc></StartTime><FrequencyChanges><FrequencyChange><Frequency dt:dt="r8">2793120000</Frequency><Timestamp dt:dt="r8">3.09428813180004E+15</Timestamp><Current dt:dt="r8">0</Current><DateUtc dt:dt="string">1969-12-31T20:46:40Z</DateUtc></FrequencyChange></FrequencyChanges></Clock>\n	59.869	1	985703687	07-13-2010	11:14:14	2	2	2	2	48	723271	0	0	375804		0	0	-1	-999999	412458	-999999	412458	1	375804	100	{`}	36654	412458	375803		-1	375803	1	mission	375803	Image2	Blocks	4	2	430957	.	4	1	56	4	stimulus	List2	431960	430457	433463	5	1034	H.bmp	S17.bmp@
MI_Revised	2109	2	<?xml version="1.0"?>\n<Clock xmlns:dt="urn:schemas-microsoft-com:datatypes"><Description dt:dt="string">E-Prime Primary Realtime Clock</Description><StartTime><Timestamp dt:dt="int">0</Timestamp><DateUtc dt:dt="string">2010-07-13T16:14:14Z</DateUtc></StartTime><FrequencyChanges><FrequencyChange><Frequency dt:dt="r8">2793120000</Frequency><Timestamp dt:dt="r8">3.09428813180004E+15</Timestamp><Current dt:dt="r8">0</Current><DateUtc dt:dt="string">1969-12-31T20:46:40Z</DateUtc></FrequencyChange></FrequencyChanges></Clock>\n	59.869	1	985703687	07-13-2010	11:14:14	2	2	2	2	48	723271	0	0	375804		0	0	-1	-999999	412458	-999999	412458	1	375804	100	{`}	36654	412458	375803		-1	375803	1	mission	375803	Image2	Blocks	5	2	436971	.	5	1	57	5	stimulus	List2	437957	436469	439459	5	870	T.bmp	S15.bmp@
MI_Revised	2109	2	<?xml version="1.0"?>\n<Clock xmlns:dt="urn:schemas-microsoft-com:datatypes"><Description dt:dt="string">E-Prime Primary Realtime Clock</Description><StartTime><Timestamp dt:dt="int">0</Timestamp><DateUtc dt:dt="string">2010-07-13T16:14:14Z</DateUtc></StartTime><FrequencyChanges><FrequencyChange><Frequency dt:dt="r8">2793120000</Frequency><Timestamp dt:dt="r8">3.09428813180004E+15</Timestamp><Current dt:dt="r8">0</Current><DateUtc dt:dt="string">1969-12-31T20:46:40Z</DateUtc></FrequencyChange></FrequencyChanges></Clock>\n	59.869	1	985703687	07-13-2010	11:14:14	2	2	2	2	48	723271	0	0	375804		0	0	-1	-999999	412458	-999999	412458	1	375804	100	{`}	36654	412458	375803		-1	375803	1	mission	375803	Image2	Blocks	6	1	442967	.	6	1	58	6	stimulus	List2	443969	442466	445457	6	808	L.bmp	S16.bmp@
MI_Revised	2109	2	<?xml version="1.0"?>\n<Clock xmlns:dt="urn:schemas-microsoft-com:datatypes"><Description dt:dt="string">E-Prime Primary Realtime Clock</Description><StartTime><Timestamp dt:dt="int">0</Timestamp><DateUtc dt:dt="string">2010-07-13T16:14:14Z</DateUtc></StartTime><FrequencyChanges><FrequencyChange><Frequency dt:dt="r8">2793120000</Frequency><Timestamp dt:dt="r8">3.09428813180004E+15</Timestamp><Current dt:dt="r8">0</Current><DateUtc dt:dt="string">1969-12-31T20:46:40Z</DateUtc></FrequencyChange></FrequencyChanges></Clock>\n	59.869	1	985703687	07-13-2010	11:14:14	2	2	2	2	48	723271	0	0	375804		0	0	-1	-999999	412458	-999999	412458	1	375804	100	{`}	36654	412458	375803		-1	375803	1	mission	375803	Image2	Blocks	7	2	448963	.	7	1	59	7	stimulus	List2	449966	448462	451469	5	636	U.bmp	S14.bmp@
MI_Revised	2109	2	<?xml version="1.0"?>\n<Clock xmlns:dt="urn:schemas-microsoft-com:datatypes"><Description dt:dt="string">E-Prime Primary Realtime Clock</Description><StartTime><Timestamp dt:dt="int">0</Timestamp><DateUtc dt:dt="string">2010-07-13T16:14:14Z</DateUtc></StartTime><FrequencyChanges><FrequencyChange><Frequency dt:dt="r8">2793120000</Frequency><Timestamp dt:dt="r8">3.09428813180004E+15</Timestamp><Current dt:dt="r8">0</Current><DateUtc dt:dt="string">1969-12-31T20:46:40Z</DateUtc></FrequencyChange></FrequencyChanges></Clock>\n	59.869	1	985703687	07-13-2010	11:14:14	2	2	2	2	48	723271	0	0	375804		0	0	-1	-999999	412458	-999999	412458	1	375804	100	{`}	36654	412458	375803		-1	375803	1	mission	375803	Image2	Blocks	8	1	454960	.	8	1	60	8	stimulus	List2	455962	454459	457465	6	912	H.bmp	S15.bmp@
MI_Revised	2109	2	<?xml version="1.0"?>\n<Clock xmlns:dt="urn:schemas-microsoft-com:datatypes"><Description dt:dt="string">E-Prime Primary Realtime Clock</Description><StartTime><Timestamp dt:dt="int">0</Timestamp><DateUtc dt:dt="string">2010-07-13T16:14:14Z</DateUtc></StartTime><FrequencyChanges><FrequencyChange><Frequency dt:dt="r8">2793120000</Frequency><Timestamp dt:dt="r8">3.09428813180004E+15</Timestamp><Current dt:dt="r8">0</Current><DateUtc dt:dt="string">1969-12-31T20:46:40Z</DateUtc></FrequencyChange></FrequencyChanges></Clock>\n	59.869	1	985703687	07-13-2010	11:14:14	2	2	2	2	48	723271	0	0	375804		0	0	-1	-999999	412458	-999999	412458	1	375804	100	{`}	36654	412458	375803		-1	375803	1	mission	375803	Image2	Blocks	9	2	460957	.	9	1	61	9	stimulus	List2	461958	460472	463462	5	755	L.bmp	L15.bmp@
MI_Revised	2109	2	<?xml version="1.0"?>\n<Clock xmlns:dt="urn:schemas-microsoft-com:datatypes"><Description dt:dt="string">E-Prime Primary Realtime Clock</Description><StartTime><Timestamp dt:dt="int">0</Timestamp><DateUtc dt:dt="string">2010-07-13T16:14:14Z</DateUtc></StartTime><FrequencyChanges><FrequencyChange><Frequency dt:dt="r8">2793120000</Frequency><Timestamp dt:dt="r8">3.09428813180004E+15</Timestamp><Current dt:dt="r8">0</Current><DateUtc dt:dt="string">1969-12-31T20:46:40Z</DateUtc></FrequencyChange></FrequencyChanges></Clock>\n	59.869	1	985703687	07-13-2010	11:14:14	2	2	2	2	48	723271	0	0	375804		0	0	-1	-999999	412458	-999999	412458	1	375804	100	{`}	36654	412458	375803		-1	375803	1	mission	375803	Image2	Blocks	10	2	466969	.	10	1	62	10	stimulus	List2	467971	466468	469458	5	727	I.bmp	I15.bmp@
MI_Revised	2109	2	<?xml version="1.0"?>\n<Clock xmlns:dt="urn:schemas-microsoft-com:datatypes"><Description dt:dt="string">E-Prime Primary Realtime Clock</Description><StartTime><Timestamp dt:dt="int">0</Timestamp><DateUtc dt:dt="string">2010-07-13T16:14:14Z</DateUtc></StartTime><FrequencyChanges><FrequencyChange><Frequency dt:dt="r8">2793120000</Frequency><Timestamp dt:dt="r8">3.09428813180004E+15</Timestamp><Current dt:dt="r8">0</Current><DateUtc dt:dt="string">1969-12-31T20:46:40Z</DateUtc></FrequencyChange></FrequencyChanges></Clock>\n	59.869	1	985703687	07-13-2010	11:14:14	2	2	2	2	48	723271	0	0	375804		0	0	-1	-999999	412458	-999999	412458	1	375804	100	{`}	36654	412458	375803		-1	375803	1	mission	375803	Image2	Blocks	11	1	472966	.	11	1	63	11	stimulus	List2	473968	472465	475471	6	874	U.bmp	U15.bmp@
MI_Revised	2109	2	<?xml version="1.0"?>\n<Clock xmlns:dt="urn:schemas-microsoft-com:datatypes"><Description dt:dt="string">E-Prime Primary Realtime Clock</Description><StartTime><Timestamp dt:dt="int">0</Timestamp><DateUtc dt:dt="string">2010-07-13T16:14:14Z</DateUtc></StartTime><FrequencyChanges><FrequencyChange><Frequency dt:dt="r8">2793120000</Frequency><Timestamp dt:dt="r8">3.09428813180004E+15</Timestamp><Current dt:dt="r8">0</Current><DateUtc dt:dt="string">1969-12-31T20:46:40Z</DateUtc></FrequencyChange></FrequencyChanges></Clock>\n	59.869	1	985703687	07-13-2010	11:14:14	2	2	2	2	48	723271	0	0	375804		0	0	-1	-999999	412458	-999999	412458	1	375804	100	{`}	36654	412458	375803		-1	375803	1	mission	375803	Image2	Blocks	12	2	478962	.	12	1	64	12	stimulus	List2	479964	478461	481468	5	717	T.bmp	T18.bmp@
MI_Revised	2109	2	<?xml version="1.0"?>\n<Clock xmlns:dt="urn:schemas-microsoft-com:datatypes"><Description dt:dt="string">E-Prime Primary Realtime Clock</Description><StartTime><Timestamp dt:dt="int">0</Timestamp><DateUtc dt:dt="string">2010-07-13T16:14:14Z</DateUtc></StartTime><FrequencyChanges><FrequencyChange><Frequency dt:dt="r8">2793120000</Frequency><Timestamp dt:dt="r8">3.09428813180004E+15</Timestamp><Current dt:dt="r8">0</Current><DateUtc dt:dt="string">1969-12-31T20:46:40Z</DateUtc></FrequencyChange></FrequencyChanges></Clock>\n	59.869	1	985703687	07-13-2010	11:14:14	2	2	2	2	48	723271	0	0	375804		0	0	-1	-999999	412458	-999999	412458	1	375804	100	{`}	36654	412458	375803		-1	375803	1	mission	375803	Image2	Blocks	13	1	484959	.	13	1	65	13	stimulus	List2	485961	484457	487464	6	945	T.bmp	T14.bmp@
MI_Revised	2109	2	<?xml version="1.0"?>\n<Clock xmlns:dt="urn:schemas-microsoft-com:datatypes"><Description dt:dt="string">E-Prime Primary Realtime Clock</Description><StartTime><Timestamp dt:dt="int">0</Timestamp><DateUtc dt:dt="string">2010-07-13T16:14:14Z</DateUtc></StartTime><FrequencyChanges><FrequencyChange><Frequency dt:dt="r8">2793120000</Frequency><Timestamp dt:dt="r8">3.09428813180004E+15</Timestamp><Current dt:dt="r8">0</Current><DateUtc dt:dt="string">1969-12-31T20:46:40Z</DateUtc></FrequencyChange></FrequencyChanges></Clock>\n	59.869	1	985703687	07-13-2010	11:14:14	2	2	2	2	48	723271	0	0	375804		0	0	-1	-999999	412458	-999999	412458	1	375804	100	{`}	36654	412458	375803		-1	375803	1	mission	375803	Image2	Blocks	14	2	490972	.	14	1	66	14	stimulus	List2	491957	490471	493460	5	749	U.bmp	U11.bmp@
MI_Revised	2109	2	<?xml version="1.0"?>\n<Clock xmlns:dt="urn:schemas-microsoft-com:datatypes"><Description dt:dt="string">E-Prime Primary Realtime Clock</Description><StartTime><Timestamp dt:dt="int">0</Timestamp><DateUtc dt:dt="string">2010-07-13T16:14:14Z</DateUtc></StartTime><FrequencyChanges><FrequencyChange><Frequency dt:dt="r8">2793120000</Frequency><Timestamp dt:dt="r8">3.09428813180004E+15</Timestamp><Current dt:dt="r8">0</Current><DateUtc dt:dt="string">1969-12-31T20:46:40Z</DateUtc></FrequencyChange></FrequencyChanges></Clock>\n	59.869	1	985703687	07-13-2010	11:14:14	2	2	2	2	48	723271	0	0	375804		0	0	-1	-999999	412458	-999999	412458	1	375804	100	{`}	36654	412458	375803		-1	375803	1	mission	375803	Image2	Blocks	15	1	496968	.	15	1	67	15	stimulus	List2	497970	496467	499457	6	824	I.bmp	I11.bmp@
MI_Revised	2109	2	<?xml version="1.0"?>\n<Clock xmlns:dt="urn:schemas-microsoft-com:datatypes"><Description dt:dt="string">E-Prime Primary Realtime Clock</Description><StartTime><Timestamp dt:dt="int">0</Timestamp><DateUtc dt:dt="string">2010-07-13T16:14:14Z</DateUtc></StartTime><FrequencyChanges><FrequencyChange><Frequency dt:dt="r8">2793120000</Frequency><Timestamp dt:dt="r8">3.09428813180004E+15</Timestamp><Current dt:dt="r8">0</Current><DateUtc dt:dt="string">1969-12-31T20:46:40Z</DateUtc></FrequencyChange></FrequencyChanges></Clock>\n	59.869	1	985703687	07-13-2010	11:14:14	2	2	2	2	48	723271	0	0	375804		0	0	-1	-999999	412458	-999999	412458	1	375804	100	{`}	36654	412458	375803		-1	375803	1	mission	375803	Image2	Blocks	16	1	502964	.	16	1	68	16	stimulus	List2	503967	502463	505470	6	811	H.bmp	H14.bmp@
MI_Revised	2109	2	<?xml version="1.0"?>\n<Clock xmlns:dt="urn:schemas-microsoft-com:datatypes"><Description dt:dt="string">E-Prime Primary Realtime Clock</Description><StartTime><Timestamp dt:dt="int">0</Timestamp><DateUtc dt:dt="string">2010-07-13T16:14:14Z</DateUtc></StartTime><FrequencyChanges><FrequencyChange><Frequency dt:dt="r8">2793120000</Frequency><Timestamp dt:dt="r8">3.09428813180004E+15</Timestamp><Current dt:dt="r8">0</Current><DateUtc dt:dt="string">1969-12-31T20:46:40Z</DateUtc></FrequencyChange></FrequencyChanges></Clock>\n	59.869	1	985703687	07-13-2010	11:14:14	2	2	2	2	48	723271	0	0	375804		0	0	-1	-999999	412458	-999999	412458	1	375804	100	{`}	36654	412458	375803		-1	375803	1	mission	375803	Image2	Blocks	17	1	508961	.	17	1	69	17	stimulus	List2	509963	508460	511466	6	935	L.bmp	S17.bmp@
MI_Revised	2109	2	<?xml version="1.0"?>\n<Clock xmlns:dt="urn:schemas-microsoft-com:datatypes"><Description dt:dt="string">E-Prime Primary Realtime Clock</Description><StartTime><Timestamp dt:dt="int">0</Timestamp><DateUtc dt:dt="string">2010-07-13T16:14:14Z</DateUtc></StartTime><FrequencyChanges><FrequencyChange><Frequency dt:dt="r8">2793120000</Frequency><Timestamp dt:dt="r8">3.09428813180004E+15</Timestamp><Current dt:dt="r8">0</Current><DateUtc dt:dt="string">1969-12-31T20:46:40Z</DateUtc></FrequencyChange></FrequencyChanges></Clock>\n	59.869	1	985703687	07-13-2010	11:14:14	2	2	2	2	48	723271	0	0	375804		0	0	-1	-999999	412458	-999999	412458	1	375804	100	{`}	36654	412458	375803		-1	375803	1	mission	375803	Image2	Blocks	18	2	514957	.	18	1	70	18	stimulus	List2	515959	514457	517463	5	921	T.bmp	S16.bmp@
MI_Revised	2109	2	<?xml version="1.0"?>\n<Clock xmlns:dt="urn:schemas-microsoft-com:datatypes"><Description dt:dt="string">E-Prime Primary Realtime Clock</Description><StartTime><Timestamp dt:dt="int">0</Timestamp><DateUtc dt:dt="string">2010-07-13T16:14:14Z</DateUtc></StartTime><FrequencyChanges><FrequencyChange><Frequency dt:dt="r8">2793120000</Frequency><Timestamp dt:dt="r8">3.09428813180004E+15</Timestamp><Current dt:dt="r8">0</Current><DateUtc dt:dt="string">1969-12-31T20:46:40Z</DateUtc></FrequencyChange></FrequencyChanges></Clock>\n	59.869	1	985703687	07-13-2010	11:14:14	2	2	2	2	48	723271	0	0	375804		0	0	-1	-999999	412458	-999999	412458	1	375804	100	{`}	36654	412458	375803		-1	375803	1	mission	375803	Image2	Blocks	19	1	520970	.	19	1	71	19	stimulus	List2	521957	520469	523459	6	773	I.bmp	S12.bmp@
MI_Revised	2109	2	<?xml version="1.0"?>\n<Clock xmlns:dt="urn:schemas-microsoft-com:datatypes"><Description dt:dt="string">E-Prime Primary Realtime Clock</Description><StartTime><Timestamp dt:dt="int">0</Timestamp><DateUtc dt:dt="string">2010-07-13T16:14:14Z</DateUtc></StartTime><FrequencyChanges><FrequencyChange><Frequency dt:dt="r8">2793120000</Frequency><Timestamp dt:dt="r8">3.09428813180004E+15</Timestamp><Current dt:dt="r8">0</Current><DateUtc dt:dt="string">1969-12-31T20:46:40Z</DateUtc></FrequencyChange></FrequencyChanges></Clock>\n	59.869	1	985703687	07-13-2010	11:14:14	2	2	2	2	48	723271	0	0	375804		0	0	-1	-999999	412458	-999999	412458	1	375804	100	{`}	36654	412458	375803		-1	375803	1	mission	375803	Image2	Blocks	20	2	526967	.	20	1	72	20	stimulus	List2	527969	526466	529457	6	1879	H.bmp	S11.bmp@
MI_Revised	2109	2	<?xml version="1.0"?>\n<Clock xmlns:dt="urn:schemas-microsoft-com:datatypes"><Description dt:dt="string">E-Prime Primary Realtime Clock</Description><StartTime><Timestamp dt:dt="int">0</Timestamp><DateUtc dt:dt="string">2010-07-13T16:14:14Z</DateUtc></StartTime><FrequencyChanges><FrequencyChange><Frequency dt:dt="r8">2793120000</Frequency><Timestamp dt:dt="r8">3.09428813180004E+15</Timestamp><Current dt:dt="r8">0</Current><DateUtc dt:dt="string">1969-12-31T20:46:40Z</DateUtc></FrequencyChange></FrequencyChanges></Clock>\n	59.869	1	985703687	07-13-2010	11:14:14	2	2	2	2	48	723271	0	0	375804		0	0	-1	-999999	412458	-999999	412458	1	375804	100	{`}	36654	412458	375803		-1	375803	1	mission	375803	Image2	Blocks	21	2	532963	.	21	1	73	21	stimulus	List2	533965	532462	535469	5	891	L.bmp	S12.bmp@
MI_Revised	2109	2	<?xml version="1.0"?>\n<Clock xmlns:dt="urn:schemas-microsoft-com:datatypes"><Description dt:dt="string">E-Prime Primary Realtime Clock</Description><StartTime><Timestamp dt:dt="int">0</Timestamp><DateUtc dt:dt="string">2010-07-13T16:14:14Z</DateUtc></StartTime><FrequencyChanges><FrequencyChange><Frequency dt:dt="r8">2793120000</Frequency><Timestamp dt:dt="r8">3.09428813180004E+15</Timestamp><Current dt:dt="r8">0</Current><DateUtc dt:dt="string">1969-12-31T20:46:40Z</DateUtc></FrequencyChange></FrequencyChanges></Clock>\n	59.869	1	985703687	07-13-2010	11:14:14	2	2	2	2	48	723271	0	0	375804		0	0	-1	-999999	412458	-999999	412458	1	375804	100	{`}	36654	412458	375803		-1	375803	1	mission	375803	Image2	Blocks	22	1	538960	.	22	1	74	22	stimulus	List2	539962	538459	541465	6	871	H.bmp	S18.bmp@
MI_Revised	2109	2	<?xml version="1.0"?>\n<Clock xmlns:dt="urn:schemas-microsoft-com:datatypes"><Description dt:dt="string">E-Prime Primary Realtime Clock</Description><StartTime><Timestamp dt:dt="int">0</Timestamp><DateUtc dt:dt="string">2010-07-13T16:14:14Z</DateUtc></StartTime><FrequencyChanges><FrequencyChange><Frequency dt:dt="r8">2793120000</Frequency><Timestamp dt:dt="r8">3.09428813180004E+15</Timestamp><Current dt:dt="r8">0</Current><DateUtc dt:dt="string">1969-12-31T20:46:40Z</DateUtc></FrequencyChange></FrequencyChanges></Clock>\n	59.869	1	985703687	07-13-2010	11:14:14	2	2	2	2	48	723271	0	0	375804		0	0	-1	-999999	412458	-999999	412458	1	375804	100	{`}	36654	412458	375803		-1	375803	1	mission	375803	Image2	Blocks	23	2	544957	.	23	1	75	23	stimulus	List2	545958	544472	547461	5	1539	I.bmp	S13.bmp@
MI_Revised	2109	2	<?xml version="1.0"?>\n<Clock xmlns:dt="urn:schemas-microsoft-com:datatypes"><Description dt:dt="string">E-Prime Primary Realtime Clock</Description><StartTime><Timestamp dt:dt="int">0</Timestamp><DateUtc dt:dt="string">2010-07-13T16:14:14Z</DateUtc></StartTime><FrequencyChanges><FrequencyChange><Frequency dt:dt="r8">2793120000</Frequency><Timestamp dt:dt="r8">3.09428813180004E+15</Timestamp><Current dt:dt="r8">0</Current><DateUtc dt:dt="string">1969-12-31T20:46:40Z</DateUtc></FrequencyChange></FrequencyChanges></Clock>\n	59.869	1	985703687	07-13-2010	11:14:14	2	2	2	2	48	723271	0	0	375804		0	0	-1	-999999	412458	-999999	412458	1	375804	100	{`}	36654	412458	375803		-1	375803	1	mission	375803	Image2	Blocks	24	1	550969	.	24	1	76	24	stimulus	List2	551971	550468	553458	6	1014	U.bmp	S13.bmp@
MI_Revised	2109	2	<?xml version="1.0"?>\n<Clock xmlns:dt="urn:schemas-microsoft-com:datatypes"><Description dt:dt="string">E-Prime Primary Realtime Clock</Description><StartTime><Timestamp dt:dt="int">0</Timestamp><DateUtc dt:dt="string">2010-07-13T16:14:14Z</DateUtc></StartTime><FrequencyChanges><FrequencyChange><Frequency dt:dt="r8">2793120000</Frequency><Timestamp dt:dt="r8">3.09428813180004E+15</Timestamp><Current dt:dt="r8">0</Current><DateUtc dt:dt="string">1969-12-31T20:46:40Z</DateUtc></FrequencyChange></FrequencyChanges></Clock>\n	59.869	1	985703687	07-13-2010	11:14:14	2	2	2	2	48	723271	0	0	375804		0	0	-1	-999999	412458	-999999	412458	1	375804	100	{`}	36654	412458	375803		-1	375803	1	mission	375803	Image2	Blocks	25	1	556966	.	25	1	77	25	stimulus	List2	557968	556464	559471	6	849	U.bmp	U10.bmp@
MI_Revised	2109	2	<?xml version="1.0"?>\n<Clock xmlns:dt="urn:schemas-microsoft-com:datatypes"><Description dt:dt="string">E-Prime Primary Realtime Clock</Description><StartTime><Timestamp dt:dt="int">0</Timestamp><DateUtc dt:dt="string">2010-07-13T16:14:14Z</DateUtc></StartTime><FrequencyChanges><FrequencyChange><Frequency dt:dt="r8">2793120000</Frequency><Timestamp dt:dt="r8">3.09428813180004E+15</Timestamp><Current dt:dt="r8">0</Current><DateUtc dt:dt="string">1969-12-31T20:46:40Z</DateUtc></FrequencyChange></FrequencyChanges></Clock>\n	59.869	1	985703687	07-13-2010	11:14:14	2	2	2	2	48	723271	0	0	375804		0	0	-1	-999999	412458	-999999	412458	1	375804	100	{`}	36654	412458	375803		-1	375803	1	mission	375803	Image2	Blocks	26	1	562962	.	26	1	78	26	stimulus	List2	563964	562461	565467	6	781	H.bmp	H13.bmp@
MI_Revised	2109	2	<?xml version="1.0"?>\n<Clock xmlns:dt="urn:schemas-microsoft-com:datatypes"><Description dt:dt="string">E-Prime Primary Realtime Clock</Description><StartTime><Timestamp dt:dt="int">0</Timestamp><DateUtc dt:dt="string">2010-07-13T16:14:14Z</DateUtc></StartTime><FrequencyChanges><FrequencyChange><Frequency dt:dt="r8">2793120000</Frequency><Timestamp dt:dt="r8">3.09428813180004E+15</Timestamp><Current dt:dt="r8">0</Current><DateUtc dt:dt="string">1969-12-31T20:46:40Z</DateUtc></FrequencyChange></FrequencyChanges></Clock>\n	59.869	1	985703687	07-13-2010	11:14:14	2	2	2	2	48	723271	0	0	375804		0	0	-1	-999999	412458	-999999	412458	1	375804	100	{`}	36654	412458	375803		-1	375803	1	mission	375803	Image2	Blocks	27	2	568958	.	27	1	79	27	stimulus	List2	569961	568457	571464	5	728	U.bmp	U11.bmp@
MI_Revised	2109	2	<?xml version="1.0"?>\n<Clock xmlns:dt="urn:schemas-microsoft-com:datatypes"><Description dt:dt="string">E-Prime Primary Realtime Clock</Description><StartTime><Timestamp dt:dt="int">0</Timestamp><DateUtc dt:dt="string">2010-07-13T16:14:14Z</DateUtc></StartTime><FrequencyChanges><FrequencyChange><Frequency dt:dt="r8">2793120000</Frequency><Timestamp dt:dt="r8">3.09428813180004E+15</Timestamp><Current dt:dt="r8">0</Current><DateUtc dt:dt="string">1969-12-31T20:46:40Z</DateUtc></FrequencyChange></FrequencyChanges></Clock>\n	59.869	1	985703687	07-13-2010	11:14:14	2	2	2	2	48	723271	0	0	375804		0	0	-1	-999999	412458	-999999	412458	1	375804	100	{`}	36654	412458	375803		-1	375803	1	mission	375803	Image2	Blocks	28	1	574971	.	28	1	80	28	stimulus	List2	575957	574470	577460	6	748	T.bmp	T12.bmp@
MI_Revised	2109	2	<?xml version="1.0"?>\n<Clock xmlns:dt="urn:schemas-microsoft-com:datatypes"><Description dt:dt="string">E-Prime Primary Realtime Clock</Description><StartTime><Timestamp dt:dt="int">0</Timestamp><DateUtc dt:dt="string">2010-07-13T16:14:14Z</DateUtc></StartTime><FrequencyChanges><FrequencyChange><Frequency dt:dt="r8">2793120000</Frequency><Timestamp dt:dt="r8">3.09428813180004E+15</Timestamp><Current dt:dt="r8">0</Current><DateUtc dt:dt="string">1969-12-31T20:46:40Z</DateUtc></FrequencyChange></FrequencyChanges></Clock>\n	59.869	1	985703687	07-13-2010	11:14:14	2	2	2	2	48	723271	0	0	375804		0	0	-1	-999999	412458	-999999	412458	1	375804	100	{`}	36654	412458	375803		-1	375803	1	mission	375803	Image2	Blocks	29	2	580968	.	29	1	81	29	stimulus	List2	581970	580467	583457	5	783	I.bmp	I13.bmp@
MI_Revised	2109	2	<?xml version="1.0"?>\n<Clock xmlns:dt="urn:schemas-microsoft-com:datatypes"><Description dt:dt="string">E-Prime Primary Realtime Clock</Description><StartTime><Timestamp dt:dt="int">0</Timestamp><DateUtc dt:dt="string">2010-07-13T16:14:14Z</DateUtc></StartTime><FrequencyChanges><FrequencyChange><Frequency dt:dt="r8">2793120000</Frequency><Timestamp dt:dt="r8">3.09428813180004E+15</Timestamp><Current dt:dt="r8">0</Current><DateUtc dt:dt="string">1969-12-31T20:46:40Z</DateUtc></FrequencyChange></FrequencyChanges></Clock>\n	59.869	1	985703687	07-13-2010	11:14:14	2	2	2	2	48	723271	0	0	375804		0	0	-1	-999999	412458	-999999	412458	1	375804	100	{`}	36654	412458	375803		-1	375803	1	mission	375803	Image2	Blocks	30	1	586964	.	30	1	82	30	stimulus	List2	587966	586463	589470	6	746	I.bmp	I18.bmp@
MI_Revised	2109	2	<?xml version="1.0"?>\n<Clock xmlns:dt="urn:schemas-microsoft-com:datatypes"><Description dt:dt="string">E-Prime Primary Realtime Clock</Description><StartTime><Timestamp dt:dt="int">0</Timestamp><DateUtc dt:dt="string">2010-07-13T16:14:14Z</DateUtc></StartTime><FrequencyChanges><FrequencyChange><Frequency dt:dt="r8">2793120000</Frequency><Timestamp dt:dt="r8">3.09428813180004E+15</Timestamp><Current dt:dt="r8">0</Current><DateUtc dt:dt="string">1969-12-31T20:46:40Z</DateUtc></FrequencyChange></FrequencyChanges></Clock>\n	59.869	1	985703687	07-13-2010	11:14:14	2	2	2	2	48	723271	0	0	375804		0	0	-1	-999999	412458	-999999	412458	1	375804	100	{`}	36654	412458	375803		-1	375803	1	mission	375803	Image2	Blocks	31	2	592961	.	31	1	83	31	stimulus	List2	593963	592460	595466	5	686	T.bmp	T15.bmp@
MI_Revised	2109	2	<?xml version="1.0"?>\n<Clock xmlns:dt="urn:schemas-microsoft-com:datatypes"><Description dt:dt="string">E-Prime Primary Realtime Clock</Description><StartTime><Timestamp dt:dt="int">0</Timestamp><DateUtc dt:dt="string">2010-07-13T16:14:14Z</DateUtc></StartTime><FrequencyChanges><FrequencyChange><Frequency dt:dt="r8">2793120000</Frequency><Timestamp dt:dt="r8">3.09428813180004E+15</Timestamp><Current dt:dt="r8">0</Current><DateUtc dt:dt="string">1969-12-31T20:46:40Z</DateUtc></FrequencyChange></FrequencyChanges></Clock>\n	59.869	1	985703687	07-13-2010	11:14:14	2	2	2	2	48	723271	0	0	375804		0	0	-1	-999999	412458	-999999	412458	1	375804	100	{`}	36654	412458	375803		-1	375803	1	mission	375803	Image2	Blocks	32	2	598957	.	32	1	84	32	stimulus	List2	599959	598457	601463	5	705	H.bmp	H11.bmp@
MI_Revised	2109	2	<?xml version="1.0"?>\n<Clock xmlns:dt="urn:schemas-microsoft-com:datatypes"><Description dt:dt="string">E-Prime Primary Realtime Clock</Description><StartTime><Timestamp dt:dt="int">0</Timestamp><DateUtc dt:dt="string">2010-07-13T16:14:14Z</DateUtc></StartTime><FrequencyChanges><FrequencyChange><Frequency dt:dt="r8">2793120000</Frequency><Timestamp dt:dt="r8">3.09428813180004E+15</Timestamp><Current dt:dt="r8">0</Current><DateUtc dt:dt="string">1969-12-31T20:46:40Z</DateUtc></FrequencyChange></FrequencyChanges></Clock>\n	59.869	1	985703687	07-13-2010	11:14:14	2	2	2	2	48	723271	0	0	375804		0	0	-1	-999999	412458	-999999	412458	1	375804	100	{`}	36654	412458	375803		-1	375803	1	mission	375803	Image2	Blocks	33	1	604970	.	33	1	85	33	stimulus	List2	605957	604469	607459	6	1149	I.bmp	S10.bmp@
MI_Revised	2109	2	<?xml version="1.0"?>\n<Clock xmlns:dt="urn:schemas-microsoft-com:datatypes"><Description dt:dt="string">E-Prime Primary Realtime Clock</Description><StartTime><Timestamp dt:dt="int">0</Timestamp><DateUtc dt:dt="string">2010-07-13T16:14:14Z</DateUtc></StartTime><FrequencyChanges><FrequencyChange><Frequency dt:dt="r8">2793120000</Frequency><Timestamp dt:dt="r8">3.09428813180004E+15</Timestamp><Current dt:dt="r8">0</Current><DateUtc dt:dt="string">1969-12-31T20:46:40Z</DateUtc></FrequencyChange></FrequencyChanges></Clock>\n	59.869	1	985703687	07-13-2010	11:14:14	2	2	2	2	48	723271	0	0	375804		0	0	-1	-999999	412458	-999999	412458	1	375804	100	{`}	36654	412458	375803		-1	375803	1	mission	375803	Image2	Blocks	34	1	610967	.	34	1	86	34	stimulus	List2	611969	610466	613472	6	1055	L.bmp	S18.bmp@
MI_Revised	2109	2	<?xml version="1.0"?>\n<Clock xmlns:dt="urn:schemas-microsoft-com:datatypes"><Description dt:dt="string">E-Prime Primary Realtime Clock</Description><StartTime><Timestamp dt:dt="int">0</Timestamp><DateUtc dt:dt="string">2010-07-13T16:14:14Z</DateUtc></StartTime><FrequencyChanges><FrequencyChange><Frequency dt:dt="r8">2793120000</Frequency><Timestamp dt:dt="r8">3.09428813180004E+15</Timestamp><Current dt:dt="r8">0</Current><DateUtc dt:dt="string">1969-12-31T20:46:40Z</DateUtc></FrequencyChange></FrequencyChanges></Clock>\n	59.869	1	985703687	07-13-2010	11:14:14	2	2	2	2	48	723271	0	0	375804		0	0	-1	-999999	412458	-999999	412458	1	375804	100	{`}	36654	412458	375803		-1	375803	1	mission	375803	Image2	Blocks	35	2	616963	.	35	1	87	35	stimulus	List2	617965	616462	619468	5	987	T.bmp	S13.bmp@
MI_Revised	2109	2	<?xml version="1.0"?>\n<Clock xmlns:dt="urn:schemas-microsoft-com:datatypes"><Description dt:dt="string">E-Prime Primary Realtime Clock</Description><StartTime><Timestamp dt:dt="int">0</Timestamp><DateUtc dt:dt="string">2010-07-13T16:14:14Z</DateUtc></StartTime><FrequencyChanges><FrequencyChange><Frequency dt:dt="r8">2793120000</Frequency><Timestamp dt:dt="r8">3.09428813180004E+15</Timestamp><Current dt:dt="r8">0</Current><DateUtc dt:dt="string">1969-12-31T20:46:40Z</DateUtc></FrequencyChange></FrequencyChanges></Clock>\n	59.869	1	985703687	07-13-2010	11:14:14	2	2	2	2	48	723271	0	0	375804		0	0	-1	-999999	412458	-999999	412458	1	375804	100	{`}	36654	412458	375803		-1	375803	1	mission	375803	Image2	Blocks	36	1	622959	.	36	1	88	36	stimulus	List2	623962	622458	625465	6	822	U.bmp	S18.bmp@
MI_Revised	2109	2	<?xml version="1.0"?>\n<Clock xmlns:dt="urn:schemas-microsoft-com:datatypes"><Description dt:dt="string">E-Prime Primary Realtime Clock</Description><StartTime><Timestamp dt:dt="int">0</Timestamp><DateUtc dt:dt="string">2010-07-13T16:14:14Z</DateUtc></StartTime><FrequencyChanges><FrequencyChange><Frequency dt:dt="r8">2793120000</Frequency><Timestamp dt:dt="r8">3.09428813180004E+15</Timestamp><Current dt:dt="r8">0</Current><DateUtc dt:dt="string">1969-12-31T20:46:40Z</DateUtc></FrequencyChange></FrequencyChanges></Clock>\n	59.869	1	985703687	07-13-2010	11:14:14	2	2	2	2	48	723271	0	0	375804		0	0	-1	-999999	412458	-999999	412458	1	375804	100	{`}	36654	412458	375803		-1	375803	1	mission	375803	Image2	Blocks	37	2	628957	.	37	1	89	37	stimulus	List2	629958	628471	631461	5	987	H.bmp	S11.bmp@
MI_Revised	2109	2	<?xml version="1.0"?>\n<Clock xmlns:dt="urn:schemas-microsoft-com:datatypes"><Description dt:dt="string">E-Prime Primary Realtime Clock</Description><StartTime><Timestamp dt:dt="int">0</Timestamp><DateUtc dt:dt="string">2010-07-13T16:14:14Z</DateUtc></StartTime><FrequencyChanges><FrequencyChange><Frequency dt:dt="r8">2793120000</Frequency><Timestamp dt:dt="r8">3.09428813180004E+15</Timestamp><Current dt:dt="r8">0</Current><DateUtc dt:dt="string">1969-12-31T20:46:40Z</DateUtc></FrequencyChange></FrequencyChanges></Clock>\n	59.869	1	985703687	07-13-2010	11:14:14	2	2	2	2	48	723271	0	0	375804		0	0	-1	-999999	412458	-999999	412458	1	375804	100	{`}	36654	412458	375803		-1	375803	1	mission	375803	Image2	Blocks	38	2	634969	.	38	1	90	38	stimulus	List2	635971	634468	637458	5	1037	L.bmp	S15.bmp@
MI_Revised	2109	2	<?xml version="1.0"?>\n<Clock xmlns:dt="urn:schemas-microsoft-com:datatypes"><Description dt:dt="string">E-Prime Primary Realtime Clock</Description><StartTime><Timestamp dt:dt="int">0</Timestamp><DateUtc dt:dt="string">2010-07-13T16:14:14Z</DateUtc></StartTime><FrequencyChanges><FrequencyChange><Frequency dt:dt="r8">2793120000</Frequency><Timestamp dt:dt="r8">3.09428813180004E+15</Timestamp><Current dt:dt="r8">0</Current><DateUtc dt:dt="string">1969-12-31T20:46:40Z</DateUtc></FrequencyChange></FrequencyChanges></Clock>\n	59.869	1	985703687	07-13-2010	11:14:14	2	2	2	2	48	723271	0	0	375804		0	0	-1	-999999	412458	-999999	412458	1	375804	100	{`}	36654	412458	375803		-1	375803	1	mission	375803	Image2	Blocks	39	1	640965	.	39	1	91	39	stimulus	List2	641968	640464	643471	6	968	T.bmp	S12.bmp@
MI_Revised	2109	2	<?xml version="1.0"?>\n<Clock xmlns:dt="urn:schemas-microsoft-com:datatypes"><Description dt:dt="string">E-Prime Primary Realtime Clock</Description><StartTime><Timestamp dt:dt="int">0</Timestamp><DateUtc dt:dt="string">2010-07-13T16:14:14Z</DateUtc></StartTime><FrequencyChanges><FrequencyChange><Frequency dt:dt="r8">2793120000</Frequency><Timestamp dt:dt="r8">3.09428813180004E+15</Timestamp><Current dt:dt="r8">0</Current><DateUtc dt:dt="string">1969-12-31T20:46:40Z</DateUtc></FrequencyChange></FrequencyChanges></Clock>\n	59.869	1	985703687	07-13-2010	11:14:14	2	2	2	2	48	723271	0	0	375804		0	0	-1	-999999	412458	-999999	412458	1	375804	100	{`}	36654	412458	375803		-1	375803	1	mission	375803	Image2	Blocks	40	2	646962	.	40	1	92	40	stimulus	List2	647964	646461	649467	5	1332	I.bmp	S13.bmp@
MI_Revised	2109	2	<?xml version="1.0"?>\n<Clock xmlns:dt="urn:schemas-microsoft-com:datatypes"><Description dt:dt="string">E-Prime Primary Realtime Clock</Description><StartTime><Timestamp dt:dt="int">0</Timestamp><DateUtc dt:dt="string">2010-07-13T16:14:14Z</DateUtc></StartTime><FrequencyChanges><FrequencyChange><Frequency dt:dt="r8">2793120000</Frequency><Timestamp dt:dt="r8">3.09428813180004E+15</Timestamp><Current dt:dt="r8">0</Current><DateUtc dt:dt="string">1969-12-31T20:46:40Z</DateUtc></FrequencyChange></FrequencyChanges></Clock>\n	59.869	1	985703687	07-13-2010	11:14:14	2	2	2	2	48	723271	0	0	375804		0	0	-1	-999999	412458	-999999	412458	1	375804	100	{`}	36654	412458	375803		-1	375803	1	mission	375803	Image2	Blocks	41	1	652958	.	41	1	93	41	stimulus	List2	653960	652457	655464	6	871	L.bmp	L13.bmp@
MI_Revised	2109	2	<?xml version="1.0"?>\n<Clock xmlns:dt="urn:schemas-microsoft-com:datatypes"><Description dt:dt="string">E-Prime Primary Realtime Clock</Description><StartTime><Timestamp dt:dt="int">0</Timestamp><DateUtc dt:dt="string">2010-07-13T16:14:14Z</DateUtc></StartTime><FrequencyChanges><FrequencyChange><Frequency dt:dt="r8">2793120000</Frequency><Timestamp dt:dt="r8">3.09428813180004E+15</Timestamp><Current dt:dt="r8">0</Current><DateUtc dt:dt="string">1969-12-31T20:46:40Z</DateUtc></FrequencyChange></FrequencyChanges></Clock>\n	59.869	1	985703687	07-13-2010	11:14:14	2	2	2	2	48	723271	0	0	375804		0	0	-1	-999999	412458	-999999	412458	1	375804	100	{`}	36654	412458	375803		-1	375803	1	mission	375803	Image2	Blocks	42	2	658971	.	42	1	94	42	stimulus	List2	659957	658470	661460	5	867	T.bmp	T16.bmp@
MI_Revised	2109	2	<?xml version="1.0"?>\n<Clock xmlns:dt="urn:schemas-microsoft-com:datatypes"><Description dt:dt="string">E-Prime Primary Realtime Clock</Description><StartTime><Timestamp dt:dt="int">0</Timestamp><DateUtc dt:dt="string">2010-07-13T16:14:14Z</DateUtc></StartTime><FrequencyChanges><FrequencyChange><Frequency dt:dt="r8">2793120000</Frequency><Timestamp dt:dt="r8">3.09428813180004E+15</Timestamp><Current dt:dt="r8">0</Current><DateUtc dt:dt="string">1969-12-31T20:46:40Z</DateUtc></FrequencyChange></FrequencyChanges></Clock>\n	59.869	1	985703687	07-13-2010	11:14:14	2	2	2	2	48	723271	0	0	375804		0	0	-1	-999999	412458	-999999	412458	1	375804	100	{`}	36654	412458	375803		-1	375803	1	mission	375803	Image2	Blocks	43	1	664968	.	43	1	95	43	stimulus	List2	665970	664467	667457	6	798	H.bmp	H12.bmp@
MI_Revised	2109	2	<?xml version="1.0"?>\n<Clock xmlns:dt="urn:schemas-microsoft-com:datatypes"><Description dt:dt="string">E-Prime Primary Realtime Clock</Description><StartTime><Timestamp dt:dt="int">0</Timestamp><DateUtc dt:dt="string">2010-07-13T16:14:14Z</DateUtc></StartTime><FrequencyChanges><FrequencyChange><Frequency dt:dt="r8">2793120000</Frequency><Timestamp dt:dt="r8">3.09428813180004E+15</Timestamp><Current dt:dt="r8">0</Current><DateUtc dt:dt="string">1969-12-31T20:46:40Z</DateUtc></FrequencyChange></FrequencyChanges></Clock>\n	59.869	1	985703687	07-13-2010	11:14:14	2	2	2	2	48	723271	0	0	375804		0	0	-1	-999999	412458	-999999	412458	1	375804	100	{`}	36654	412458	375803		-1	375803	1	mission	375803	Image2	Blocks	44	2	670964	.	44	1	96	44	stimulus	List2	671966	670463	673470	5	793	U.bmp	U14.bmp@
MI_Revised	2109	2	<?xml version="1.0"?>\n<Clock xmlns:dt="urn:schemas-microsoft-com:datatypes"><Description dt:dt="string">E-Prime Primary Realtime Clock</Description><StartTime><Timestamp dt:dt="int">0</Timestamp><DateUtc dt:dt="string">2010-07-13T16:14:14Z</DateUtc></StartTime><FrequencyChanges><FrequencyChange><Frequency dt:dt="r8">2793120000</Frequency><Timestamp dt:dt="r8">3.09428813180004E+15</Timestamp><Current dt:dt="r8">0</Current><DateUtc dt:dt="string">1969-12-31T20:46:40Z</DateUtc></FrequencyChange></FrequencyChanges></Clock>\n	59.869	1	985703687	07-13-2010	11:14:14	2	2	2	2	48	723271	0	0	375804		0	0	-1	-999999	412458	-999999	412458	1	375804	100	{`}	36654	412458	375803		-1	375803	1	mission	375803	Image2	Blocks	45	2	676961	.	45	1	97	45	stimulus	List2	677963	676459	679466	5	1013	H.bmp	H17.bmp@
MI_Revised	2109	2	<?xml version="1.0"?>\n<Clock xmlns:dt="urn:schemas-microsoft-com:datatypes"><Description dt:dt="string">E-Prime Primary Realtime Clock</Description><StartTime><Timestamp dt:dt="int">0</Timestamp><DateUtc dt:dt="string">2010-07-13T16:14:14Z</DateUtc></StartTime><FrequencyChanges><FrequencyChange><Frequency dt:dt="r8">2793120000</Frequency><Timestamp dt:dt="r8">3.09428813180004E+15</Timestamp><Current dt:dt="r8">0</Current><DateUtc dt:dt="string">1969-12-31T20:46:40Z</DateUtc></FrequencyChange></FrequencyChanges></Clock>\n	59.869	1	985703687	07-13-2010	11:14:14	2	2	2	2	48	723271	0	0	375804		0	0	-1	-999999	412458	-999999	412458	1	375804	100	{`}	36654	412458	375803		-1	375803	1	mission	375803	Image2	Blocks	46	1	682957	.	46	1	98	46	stimulus	List2	683959	682457	685462	6	761	U.bmp	U17.bmp@
MI_Revised	2109	2	<?xml version="1.0"?>\n<Clock xmlns:dt="urn:schemas-microsoft-com:datatypes"><Description dt:dt="string">E-Prime Primary Realtime Clock</Description><StartTime><Timestamp dt:dt="int">0</Timestamp><DateUtc dt:dt="string">2010-07-13T16:14:14Z</DateUtc></StartTime><FrequencyChanges><FrequencyChange><Frequency dt:dt="r8">2793120000</Frequency><Timestamp dt:dt="r8">3.09428813180004E+15</Timestamp><Current dt:dt="r8">0</Current><DateUtc dt:dt="string">1969-12-31T20:46:40Z</DateUtc></FrequencyChange></FrequencyChanges></Clock>\n	59.869	1	985703687	07-13-2010	11:14:14	2	2	2	2	48	723271	0	0	375804		0	0	-1	-999999	412458	-999999	412458	1	375804	100	{`}	36654	412458	375803		-1	375803	1	mission	375803	Image2	Blocks	47	2	688970	.	47	1	99	47	stimulus	List2	689957	688469	691459	5	900	L.bmp	L11.bmp@
MI_Revised	2109	2	<?xml version="1.0"?>\n<Clock xmlns:dt="urn:schemas-microsoft-com:datatypes"><Description dt:dt="string">E-Prime Primary Realtime Clock</Description><StartTime><Timestamp dt:dt="int">0</Timestamp><DateUtc dt:dt="string">2010-07-13T16:14:14Z</DateUtc></StartTime><FrequencyChanges><FrequencyChange><Frequency dt:dt="r8">2793120000</Frequency><Timestamp dt:dt="r8">3.09428813180004E+15</Timestamp><Current dt:dt="r8">0</Current><DateUtc dt:dt="string">1969-12-31T20:46:40Z</DateUtc></FrequencyChange></FrequencyChanges></Clock>\n	59.869	1	985703687	07-13-2010	11:14:14	2	2	2	2	48	723271	0	0	375804		0	0	-1	-999999	412458	-999999	412458	1	375804	100	{`}	36654	412458	375803		-1	375803	1	mission	375803	Image2	Blocks	48	1	694966	.	48	1	100	48	stimulus	List2	695969	694465	697472	6	887	T.bmp	T17.bmp@
