ExperimentName	Subject	Session	Clock.Information	Clock.StartTimeOfDay	Display.RefreshRate	Group	RandomSeed	SessionDate	SessionTime	SessionTimeUtc	Block	Blocks	Blocks.Cycle	Blocks.Sample	Cnt	doneScr	Procedure[Block]	Ready.OffsetTime	readyTxt	runList	Running[Block]	Trial	correct	jitter	List3	List3.Cycle	List3.Sample	M1	M2	pic1	postStim.OnsetTime	postStim.RESP	postStim.RT	postStim.RTTime	Procedure[Trial]	Running[Trial]	stim.DurationError	stim.OnsetDelay	stim.OnsetTime	stim.RESP	stim.RT	stim.RTTime	text1	type
PictureTask_List_A	2164	1	<?xml version="1.0"?>\n<Clock xmlns:dt="urn:schemas-microsoft-com:datatypes"><Description dt:dt="string">E-Prime Primary Realtime Clock</Description><StartTime><Timestamp dt:dt="int">0</Timestamp><DateUtc dt:dt="string">2010-07-29T18:43:38Z</DateUtc></StartTime><FrequencyChanges><FrequencyChange><Frequency dt:dt="r8">2793150000</Frequency><Timestamp dt:dt="r8">24335743742057</Timestamp><Current dt:dt="r8">0</Current><DateUtc dt:dt="string">2010-07-29T18:43:38Z</DateUtc></FrequencyChange></FrequencyChanges></Clock>\n	7/29/2010 1:43:38 PM	59.870	1	673331072	07-29-2010	13:43:38	6:43:38 PM	1	1	1	1	27	Done.bmp	mission	126221	Now get ready for a practice to \nsee how the game works.	PracList	Blocks	.	.	.	.	.	.	.	.	.	.	.	.	.	.	.	.	.	.	.	.	.	.	.@
PictureTask_List_A	2164	1	<?xml version="1.0"?>\n<Clock xmlns:dt="urn:schemas-microsoft-com:datatypes"><Description dt:dt="string">E-Prime Primary Realtime Clock</Description><StartTime><Timestamp dt:dt="int">0</Timestamp><DateUtc dt:dt="string">2010-07-29T18:43:38Z</DateUtc></StartTime><FrequencyChanges><FrequencyChange><Frequency dt:dt="r8">2793150000</Frequency><Timestamp dt:dt="r8">24335743742057</Timestamp><Current dt:dt="r8">0</Current><DateUtc dt:dt="string">2010-07-29T18:43:38Z</DateUtc></FrequencyChange></FrequencyChanges></Clock>\n	7/29/2010 1:43:38 PM	59.870	1	673331072	07-29-2010	13:43:38	6:43:38 PM	2	2	1	2	94	Done.bmp	mission	156252	Get ready for the first game to start.	M1	Blocks	1	0	1600	1	3	1	1	.	plate.bmp	171672		0	0	disp	List3	-24	24	170185		0	0		@
PictureTask_List_A	2164	1	<?xml version="1.0"?>\n<Clock xmlns:dt="urn:schemas-microsoft-com:datatypes"><Description dt:dt="string">E-Prime Primary Realtime Clock</Description><StartTime><Timestamp dt:dt="int">0</Timestamp><DateUtc dt:dt="string">2010-07-29T18:43:38Z</DateUtc></StartTime><FrequencyChanges><FrequencyChange><Frequency dt:dt="r8">2793150000</Frequency><Timestamp dt:dt="r8">24335743742057</Timestamp><Current dt:dt="r8">0</Current><DateUtc dt:dt="string">2010-07-29T18:43:38Z</DateUtc></FrequencyChange></FrequencyChanges></Clock>\n	7/29/2010 1:43:38 PM	59.870	1	673331072	07-29-2010	13:43:38	6:43:38 PM	2	2	1	2	94	Done.bmp	mission	156252	Get ready for the first game to start.	M1	Blocks	2	0	3000	1	4	2	2	.	plate.bmp	174762		0	0	disp	List3	-14	14	173275	5	1358	174633	place	wrd@
PictureTask_List_A	2164	1	<?xml version="1.0"?>\n<Clock xmlns:dt="urn:schemas-microsoft-com:datatypes"><Description dt:dt="string">E-Prime Primary Realtime Clock</Description><StartTime><Timestamp dt:dt="int">0</Timestamp><DateUtc dt:dt="string">2010-07-29T18:43:38Z</DateUtc></StartTime><FrequencyChanges><FrequencyChange><Frequency dt:dt="r8">2793150000</Frequency><Timestamp dt:dt="r8">24335743742057</Timestamp><Current dt:dt="r8">0</Current><DateUtc dt:dt="string">2010-07-29T18:43:38Z</DateUtc></FrequencyChange></FrequencyChanges></Clock>\n	7/29/2010 1:43:38 PM	59.870	1	673331072	07-29-2010	13:43:38	6:43:38 PM	2	2	1	2	94	Done.bmp	mission	156252	Get ready for the first game to start.	M1	Blocks	3	0	1900	1	5	3	3	.	plate.bmp	179271		0	0	disp	List3	-7	7	177768	5	721	178489	pltjb	con@
PictureTask_List_A	2164	1	<?xml version="1.0"?>\n<Clock xmlns:dt="urn:schemas-microsoft-com:datatypes"><Description dt:dt="string">E-Prime Primary Realtime Clock</Description><StartTime><Timestamp dt:dt="int">0</Timestamp><DateUtc dt:dt="string">2010-07-29T18:43:38Z</DateUtc></StartTime><FrequencyChanges><FrequencyChange><Frequency dt:dt="r8">2793150000</Frequency><Timestamp dt:dt="r8">24335743742057</Timestamp><Current dt:dt="r8">0</Current><DateUtc dt:dt="string">2010-07-29T18:43:38Z</DateUtc></FrequencyChange></FrequencyChanges></Clock>\n	7/29/2010 1:43:38 PM	59.870	1	673331072	07-29-2010	13:43:38	6:43:38 PM	2	2	1	2	94	Done.bmp	mission	156252	Get ready for the first game to start.	M1	Blocks	4	0	1500	1	6	4	4	.	plate.bmp	182662		0	0	disp	List3	1	-1	181160	5	1249	182409	plant	wrd@
PictureTask_List_A	2164	1	<?xml version="1.0"?>\n<Clock xmlns:dt="urn:schemas-microsoft-com:datatypes"><Description dt:dt="string">E-Prime Primary Realtime Clock</Description><StartTime><Timestamp dt:dt="int">0</Timestamp><DateUtc dt:dt="string">2010-07-29T18:43:38Z</DateUtc></StartTime><FrequencyChanges><FrequencyChange><Frequency dt:dt="r8">2793150000</Frequency><Timestamp dt:dt="r8">24335743742057</Timestamp><Current dt:dt="r8">0</Current><DateUtc dt:dt="string">2010-07-29T18:43:38Z</DateUtc></FrequencyChange></FrequencyChanges></Clock>\n	7/29/2010 1:43:38 PM	59.870	1	673331072	07-29-2010	13:43:38	6:43:38 PM	2	2	1	2	94	Done.bmp	mission	156252	Get ready for the first game to start.	M1	Blocks	5	0	1600	1	7	5	5	.	plate.bmp	185669		0	0	disp	List3	-4	4	184165	5	668	184833	plute	psw@
PictureTask_List_A	2164	1	<?xml version="1.0"?>\n<Clock xmlns:dt="urn:schemas-microsoft-com:datatypes"><Description dt:dt="string">E-Prime Primary Realtime Clock</Description><StartTime><Timestamp dt:dt="int">0</Timestamp><DateUtc dt:dt="string">2010-07-29T18:43:38Z</DateUtc></StartTime><FrequencyChanges><FrequencyChange><Frequency dt:dt="r8">2793150000</Frequency><Timestamp dt:dt="r8">24335743742057</Timestamp><Current dt:dt="r8">0</Current><DateUtc dt:dt="string">2010-07-29T18:43:38Z</DateUtc></FrequencyChange></FrequencyChanges></Clock>\n	7/29/2010 1:43:38 PM	59.870	1	673331072	07-29-2010	13:43:38	6:43:38 PM	2	2	1	2	94	Done.bmp	mission	156252	Get ready for the first game to start.	M1	Blocks	6	1	2400	1	8	6	6	.	plate.bmp	188760		0	0	disp	List3	-11	11	187272	6	761	188033	plate	match@
PictureTask_List_A	2164	1	<?xml version="1.0"?>\n<Clock xmlns:dt="urn:schemas-microsoft-com:datatypes"><Description dt:dt="string">E-Prime Primary Realtime Clock</Description><StartTime><Timestamp dt:dt="int">0</Timestamp><DateUtc dt:dt="string">2010-07-29T18:43:38Z</DateUtc></StartTime><FrequencyChanges><FrequencyChange><Frequency dt:dt="r8">2793150000</Frequency><Timestamp dt:dt="r8">24335743742057</Timestamp><Current dt:dt="r8">0</Current><DateUtc dt:dt="string">2010-07-29T18:43:38Z</DateUtc></FrequencyChange></FrequencyChanges></Clock>\n	7/29/2010 1:43:38 PM	59.870	1	673331072	07-29-2010	13:43:38	6:43:38 PM	2	2	1	2	94	Done.bmp	mission	156252	Get ready for the first game to start.	M1	Blocks	7	0	2000	1	9	7	7	.	plate.bmp	192667		0	0	disp	List3	-3	3	191164	5	869	192033	plare	psw@
PictureTask_List_A	2164	1	<?xml version="1.0"?>\n<Clock xmlns:dt="urn:schemas-microsoft-com:datatypes"><Description dt:dt="string">E-Prime Primary Realtime Clock</Description><StartTime><Timestamp dt:dt="int">0</Timestamp><DateUtc dt:dt="string">2010-07-29T18:43:38Z</DateUtc></StartTime><FrequencyChanges><FrequencyChange><Frequency dt:dt="r8">2793150000</Frequency><Timestamp dt:dt="r8">24335743742057</Timestamp><Current dt:dt="r8">0</Current><DateUtc dt:dt="string">2010-07-29T18:43:38Z</DateUtc></FrequencyChange></FrequencyChanges></Clock>\n	7/29/2010 1:43:38 PM	59.870	1	673331072	07-29-2010	13:43:38	6:43:38 PM	2	2	1	2	94	Done.bmp	mission	156252	Get ready for the first game to start.	M1	Blocks	8	0	1700	1	10	8	8	.	plate.bmp	196175		0	0	disp	List3	-10	10	194671	5	378	195049	plrtb	con@
PictureTask_List_A	2164	1	<?xml version="1.0"?>\n<Clock xmlns:dt="urn:schemas-microsoft-com:datatypes"><Description dt:dt="string">E-Prime Primary Realtime Clock</Description><StartTime><Timestamp dt:dt="int">0</Timestamp><DateUtc dt:dt="string">2010-07-29T18:43:38Z</DateUtc></StartTime><FrequencyChanges><FrequencyChange><Frequency dt:dt="r8">2793150000</Frequency><Timestamp dt:dt="r8">24335743742057</Timestamp><Current dt:dt="r8">0</Current><DateUtc dt:dt="string">2010-07-29T18:43:38Z</DateUtc></FrequencyChange></FrequencyChanges></Clock>\n	7/29/2010 1:43:38 PM	59.870	1	673331072	07-29-2010	13:43:38	6:43:38 PM	2	2	1	2	94	Done.bmp	mission	156252	Get ready for the first game to start.	M1	Blocks	9	0	3400	1	11	9	9	.	bkgd.bmp	199365		0	0	disp	List3	-1	1	197862		0	0		@
PictureTask_List_A	2164	1	<?xml version="1.0"?>\n<Clock xmlns:dt="urn:schemas-microsoft-com:datatypes"><Description dt:dt="string">E-Prime Primary Realtime Clock</Description><StartTime><Timestamp dt:dt="int">0</Timestamp><DateUtc dt:dt="string">2010-07-29T18:43:38Z</DateUtc></StartTime><FrequencyChanges><FrequencyChange><Frequency dt:dt="r8">2793150000</Frequency><Timestamp dt:dt="r8">24335743742057</Timestamp><Current dt:dt="r8">0</Current><DateUtc dt:dt="string">2010-07-29T18:43:38Z</DateUtc></FrequencyChange></FrequencyChanges></Clock>\n	7/29/2010 1:43:38 PM	59.870	1	673331072	07-29-2010	13:43:38	6:43:38 PM	2	2	1	2	94	Done.bmp	mission	156252	Get ready for the first game to start.	M1	Blocks	10	0	1900	1	12	10	10	.	belt.bmp	204260		0	0	disp	List3	-11	11	202772		0	0		@
PictureTask_List_A	2164	1	<?xml version="1.0"?>\n<Clock xmlns:dt="urn:schemas-microsoft-com:datatypes"><Description dt:dt="string">E-Prime Primary Realtime Clock</Description><StartTime><Timestamp dt:dt="int">0</Timestamp><DateUtc dt:dt="string">2010-07-29T18:43:38Z</DateUtc></StartTime><FrequencyChanges><FrequencyChange><Frequency dt:dt="r8">2793150000</Frequency><Timestamp dt:dt="r8">24335743742057</Timestamp><Current dt:dt="r8">0</Current><DateUtc dt:dt="string">2010-07-29T18:43:38Z</DateUtc></FrequencyChange></FrequencyChanges></Clock>\n	7/29/2010 1:43:38 PM	59.870	1	673331072	07-29-2010	13:43:38	6:43:38 PM	2	2	1	2	94	Done.bmp	mission	156252	Get ready for the first game to start.	M1	Blocks	11	0	3000	1	13	11	11	.	belt.bmp	207666		0	0	disp	List3	-2	2	206163		0	0	belf	psw@
PictureTask_List_A	2164	1	<?xml version="1.0"?>\n<Clock xmlns:dt="urn:schemas-microsoft-com:datatypes"><Description dt:dt="string">E-Prime Primary Realtime Clock</Description><StartTime><Timestamp dt:dt="int">0</Timestamp><DateUtc dt:dt="string">2010-07-29T18:43:38Z</DateUtc></StartTime><FrequencyChanges><FrequencyChange><Frequency dt:dt="r8">2793150000</Frequency><Timestamp dt:dt="r8">24335743742057</Timestamp><Current dt:dt="r8">0</Current><DateUtc dt:dt="string">2010-07-29T18:43:38Z</DateUtc></FrequencyChange></FrequencyChanges></Clock>\n	7/29/2010 1:43:38 PM	59.870	1	673331072	07-29-2010	13:43:38	6:43:38 PM	2	2	1	2	94	Done.bmp	mission	156252	Get ready for the first game to start.	M1	Blocks	12	0	1700	1	14	12	12	.	belt.bmp	212160		0	0	disp	List3	-12	12	210673		0	0	btlt	con@
PictureTask_List_A	2164	1	<?xml version="1.0"?>\n<Clock xmlns:dt="urn:schemas-microsoft-com:datatypes"><Description dt:dt="string">E-Prime Primary Realtime Clock</Description><StartTime><Timestamp dt:dt="int">0</Timestamp><DateUtc dt:dt="string">2010-07-29T18:43:38Z</DateUtc></StartTime><FrequencyChanges><FrequencyChange><Frequency dt:dt="r8">2793150000</Frequency><Timestamp dt:dt="r8">24335743742057</Timestamp><Current dt:dt="r8">0</Current><DateUtc dt:dt="string">2010-07-29T18:43:38Z</DateUtc></FrequencyChange></FrequencyChanges></Clock>\n	7/29/2010 1:43:38 PM	59.870	1	673331072	07-29-2010	13:43:38	6:43:38 PM	2	2	1	2	94	Done.bmp	mission	156252	Get ready for the first game to start.	M1	Blocks	13	0	1800	1	15	13	13	.	belt.bmp	215366		0	0	disp	List3	-2	2	213863		0	0	bell	wrd@
PictureTask_List_A	2164	1	<?xml version="1.0"?>\n<Clock xmlns:dt="urn:schemas-microsoft-com:datatypes"><Description dt:dt="string">E-Prime Primary Realtime Clock</Description><StartTime><Timestamp dt:dt="int">0</Timestamp><DateUtc dt:dt="string">2010-07-29T18:43:38Z</DateUtc></StartTime><FrequencyChanges><FrequencyChange><Frequency dt:dt="r8">2793150000</Frequency><Timestamp dt:dt="r8">24335743742057</Timestamp><Current dt:dt="r8">0</Current><DateUtc dt:dt="string">2010-07-29T18:43:38Z</DateUtc></FrequencyChange></FrequencyChanges></Clock>\n	7/29/2010 1:43:38 PM	59.870	1	673331072	07-29-2010	13:43:38	6:43:38 PM	2	2	1	2	94	Done.bmp	mission	156252	Get ready for the first game to start.	M1	Blocks	14	0	1500	1	16	14	14	.	belt.bmp	218674		0	0	disp	List3	-9	9	217170		0	0	bmrp	con@
PictureTask_List_A	2164	1	<?xml version="1.0"?>\n<Clock xmlns:dt="urn:schemas-microsoft-com:datatypes"><Description dt:dt="string">E-Prime Primary Realtime Clock</Description><StartTime><Timestamp dt:dt="int">0</Timestamp><DateUtc dt:dt="string">2010-07-29T18:43:38Z</DateUtc></StartTime><FrequencyChanges><FrequencyChange><Frequency dt:dt="r8">2793150000</Frequency><Timestamp dt:dt="r8">24335743742057</Timestamp><Current dt:dt="r8">0</Current><DateUtc dt:dt="string">2010-07-29T18:43:38Z</DateUtc></FrequencyChange></FrequencyChanges></Clock>\n	7/29/2010 1:43:38 PM	59.870	1	673331072	07-29-2010	13:43:38	6:43:38 PM	2	2	1	2	94	Done.bmp	mission	156252	Get ready for the first game to start.	M1	Blocks	15	0	2300	1	17	15	15	.	belt.bmp	221663		0	0	disp	List3	1	-1	220160	5	304	220464	best	wrd@
PictureTask_List_A	2164	1	<?xml version="1.0"?>\n<Clock xmlns:dt="urn:schemas-microsoft-com:datatypes"><Description dt:dt="string">E-Prime Primary Realtime Clock</Description><StartTime><Timestamp dt:dt="int">0</Timestamp><DateUtc dt:dt="string">2010-07-29T18:43:38Z</DateUtc></StartTime><FrequencyChanges><FrequencyChange><Frequency dt:dt="r8">2793150000</Frequency><Timestamp dt:dt="r8">24335743742057</Timestamp><Current dt:dt="r8">0</Current><DateUtc dt:dt="string">2010-07-29T18:43:38Z</DateUtc></FrequencyChange></FrequencyChanges></Clock>\n	7/29/2010 1:43:38 PM	59.870	1	673331072	07-29-2010	13:43:38	6:43:38 PM	2	2	1	2	94	Done.bmp	mission	156252	Get ready for the first game to start.	M1	Blocks	16	1	2500	1	18	16	16	.	belt.bmp	225472		0	0	disp	List3	-7	7	223968	6	544	224512	belt	match@
PictureTask_List_A	2164	1	<?xml version="1.0"?>\n<Clock xmlns:dt="urn:schemas-microsoft-com:datatypes"><Description dt:dt="string">E-Prime Primary Realtime Clock</Description><StartTime><Timestamp dt:dt="int">0</Timestamp><DateUtc dt:dt="string">2010-07-29T18:43:38Z</DateUtc></StartTime><FrequencyChanges><FrequencyChange><Frequency dt:dt="r8">2793150000</Frequency><Timestamp dt:dt="r8">24335743742057</Timestamp><Current dt:dt="r8">0</Current><DateUtc dt:dt="string">2010-07-29T18:43:38Z</DateUtc></FrequencyChange></FrequencyChanges></Clock>\n	7/29/2010 1:43:38 PM	59.870	1	673331072	07-29-2010	13:43:38	6:43:38 PM	2	2	1	2	94	Done.bmp	mission	156252	Get ready for the first game to start.	M1	Blocks	17	0	1600	1	19	17	17	.	belt.bmp	229464		0	0	disp	List3	1	-1	227960	5	400	228360	beft	psw@
PictureTask_List_A	2164	1	<?xml version="1.0"?>\n<Clock xmlns:dt="urn:schemas-microsoft-com:datatypes"><Description dt:dt="string">E-Prime Primary Realtime Clock</Description><StartTime><Timestamp dt:dt="int">0</Timestamp><DateUtc dt:dt="string">2010-07-29T18:43:38Z</DateUtc></StartTime><FrequencyChanges><FrequencyChange><Frequency dt:dt="r8">2793150000</Frequency><Timestamp dt:dt="r8">24335743742057</Timestamp><Current dt:dt="r8">0</Current><DateUtc dt:dt="string">2010-07-29T18:43:38Z</DateUtc></FrequencyChange></FrequencyChanges></Clock>\n	7/29/2010 1:43:38 PM	59.870	1	673331072	07-29-2010	13:43:38	6:43:38 PM	2	2	1	2	94	Done.bmp	mission	156252	Get ready for the first game to start.	M1	Blocks	18	1	1700	1	20	18	18	.	belt.bmp	232570		0	0	disp	List3	-6	6	231067	6	1205	232272	belt	match@
PictureTask_List_A	2164	1	<?xml version="1.0"?>\n<Clock xmlns:dt="urn:schemas-microsoft-com:datatypes"><Description dt:dt="string">E-Prime Primary Realtime Clock</Description><StartTime><Timestamp dt:dt="int">0</Timestamp><DateUtc dt:dt="string">2010-07-29T18:43:38Z</DateUtc></StartTime><FrequencyChanges><FrequencyChange><Frequency dt:dt="r8">2793150000</Frequency><Timestamp dt:dt="r8">24335743742057</Timestamp><Current dt:dt="r8">0</Current><DateUtc dt:dt="string">2010-07-29T18:43:38Z</DateUtc></FrequencyChange></FrequencyChanges></Clock>\n	7/29/2010 1:43:38 PM	59.870	1	673331072	07-29-2010	13:43:38	6:43:38 PM	2	2	1	2	94	Done.bmp	mission	156252	Get ready for the first game to start.	M1	Blocks	19	0	4000	1	21	19	19	.	bkgd.bmp	235761		0	0	disp	List3	-13	13	234274		0	0		@
PictureTask_List_A	2164	1	<?xml version="1.0"?>\n<Clock xmlns:dt="urn:schemas-microsoft-com:datatypes"><Description dt:dt="string">E-Prime Primary Realtime Clock</Description><StartTime><Timestamp dt:dt="int">0</Timestamp><DateUtc dt:dt="string">2010-07-29T18:43:38Z</DateUtc></StartTime><FrequencyChanges><FrequencyChange><Frequency dt:dt="r8">2793150000</Frequency><Timestamp dt:dt="r8">24335743742057</Timestamp><Current dt:dt="r8">0</Current><DateUtc dt:dt="string">2010-07-29T18:43:38Z</DateUtc></FrequencyChange></FrequencyChanges></Clock>\n	7/29/2010 1:43:38 PM	59.870	1	673331072	07-29-2010	13:43:38	6:43:38 PM	2	2	1	2	94	Done.bmp	mission	156252	Get ready for the first game to start.	M1	Blocks	20	0	2800	1	22	20	20	.	dress.bmp	241273		0	0	disp	List3	-8	8	239769		0	0		@
PictureTask_List_A	2164	1	<?xml version="1.0"?>\n<Clock xmlns:dt="urn:schemas-microsoft-com:datatypes"><Description dt:dt="string">E-Prime Primary Realtime Clock</Description><StartTime><Timestamp dt:dt="int">0</Timestamp><DateUtc dt:dt="string">2010-07-29T18:43:38Z</DateUtc></StartTime><FrequencyChanges><FrequencyChange><Frequency dt:dt="r8">2793150000</Frequency><Timestamp dt:dt="r8">24335743742057</Timestamp><Current dt:dt="r8">0</Current><DateUtc dt:dt="string">2010-07-29T18:43:38Z</DateUtc></FrequencyChange></FrequencyChanges></Clock>\n	7/29/2010 1:43:38 PM	59.870	1	673331072	07-29-2010	13:43:38	6:43:38 PM	2	2	1	2	94	Done.bmp	mission	156252	Get ready for the first game to start.	M1	Blocks	21	0	2500	1	23	21	21	.	dress.bmp	245565		0	0	disp	List3	-1	1	244062	5	1074	245136	drain	wrd@
PictureTask_List_A	2164	1	<?xml version="1.0"?>\n<Clock xmlns:dt="urn:schemas-microsoft-com:datatypes"><Description dt:dt="string">E-Prime Primary Realtime Clock</Description><StartTime><Timestamp dt:dt="int">0</Timestamp><DateUtc dt:dt="string">2010-07-29T18:43:38Z</DateUtc></StartTime><FrequencyChanges><FrequencyChange><Frequency dt:dt="r8">2793150000</Frequency><Timestamp dt:dt="r8">24335743742057</Timestamp><Current dt:dt="r8">0</Current><DateUtc dt:dt="string">2010-07-29T18:43:38Z</DateUtc></FrequencyChange></FrequencyChanges></Clock>\n	7/29/2010 1:43:38 PM	59.870	1	673331072	07-29-2010	13:43:38	6:43:38 PM	2	2	1	2	94	Done.bmp	mission	156252	Get ready for the first game to start.	M1	Blocks	22	0	2200	1	24	22	22	.	dress.bmp	249574		0	0	disp	List3	-10	10	248071	5	976	249047	drcmr	con@
PictureTask_List_A	2164	1	<?xml version="1.0"?>\n<Clock xmlns:dt="urn:schemas-microsoft-com:datatypes"><Description dt:dt="string">E-Prime Primary Realtime Clock</Description><StartTime><Timestamp dt:dt="int">0</Timestamp><DateUtc dt:dt="string">2010-07-29T18:43:38Z</DateUtc></StartTime><FrequencyChanges><FrequencyChange><Frequency dt:dt="r8">2793150000</Frequency><Timestamp dt:dt="r8">24335743742057</Timestamp><Current dt:dt="r8">0</Current><DateUtc dt:dt="string">2010-07-29T18:43:38Z</DateUtc></FrequencyChange></FrequencyChanges></Clock>\n	7/29/2010 1:43:38 PM	59.870	1	673331072	07-29-2010	13:43:38	6:43:38 PM	2	2	1	2	94	Done.bmp	mission	156252	Get ready for the first game to start.	M1	Blocks	23	0	2400	1	25	23	23	.	dress.bmp	253265		0	0	disp	List3	-1	1	251762	5	910	252672	droke	psw@
PictureTask_List_A	2164	1	<?xml version="1.0"?>\n<Clock xmlns:dt="urn:schemas-microsoft-com:datatypes"><Description dt:dt="string">E-Prime Primary Realtime Clock</Description><StartTime><Timestamp dt:dt="int">0</Timestamp><DateUtc dt:dt="string">2010-07-29T18:43:38Z</DateUtc></StartTime><FrequencyChanges><FrequencyChange><Frequency dt:dt="r8">2793150000</Frequency><Timestamp dt:dt="r8">24335743742057</Timestamp><Current dt:dt="r8">0</Current><DateUtc dt:dt="string">2010-07-29T18:43:38Z</DateUtc></FrequencyChange></FrequencyChanges></Clock>\n	7/29/2010 1:43:38 PM	59.870	1	673331072	07-29-2010	13:43:38	6:43:38 PM	2	2	1	2	94	Done.bmp	mission	156252	Get ready for the first game to start.	M1	Blocks	24	1	2900	1	26	24	24	.	dress.bmp	257174		0	0	disp	List3	-9	9	255670	6	833	256503	dress	match@
PictureTask_List_A	2164	1	<?xml version="1.0"?>\n<Clock xmlns:dt="urn:schemas-microsoft-com:datatypes"><Description dt:dt="string">E-Prime Primary Realtime Clock</Description><StartTime><Timestamp dt:dt="int">0</Timestamp><DateUtc dt:dt="string">2010-07-29T18:43:38Z</DateUtc></StartTime><FrequencyChanges><FrequencyChange><Frequency dt:dt="r8">2793150000</Frequency><Timestamp dt:dt="r8">24335743742057</Timestamp><Current dt:dt="r8">0</Current><DateUtc dt:dt="string">2010-07-29T18:43:38Z</DateUtc></FrequencyChange></FrequencyChanges></Clock>\n	7/29/2010 1:43:38 PM	59.870	1	673331072	07-29-2010	13:43:38	6:43:38 PM	2	2	1	2	94	Done.bmp	mission	156252	Get ready for the first game to start.	M1	Blocks	25	0	2100	1	27	25	25	.	dress.bmp	261567		0	0	disp	List3	-3	3	260064	5	799	260863	dream	wrd@
PictureTask_List_A	2164	1	<?xml version="1.0"?>\n<Clock xmlns:dt="urn:schemas-microsoft-com:datatypes"><Description dt:dt="string">E-Prime Primary Realtime Clock</Description><StartTime><Timestamp dt:dt="int">0</Timestamp><DateUtc dt:dt="string">2010-07-29T18:43:38Z</DateUtc></StartTime><FrequencyChanges><FrequencyChange><Frequency dt:dt="r8">2793150000</Frequency><Timestamp dt:dt="r8">24335743742057</Timestamp><Current dt:dt="r8">0</Current><DateUtc dt:dt="string">2010-07-29T18:43:38Z</DateUtc></FrequencyChange></FrequencyChanges></Clock>\n	7/29/2010 1:43:38 PM	59.870	1	673331072	07-29-2010	13:43:38	6:43:38 PM	2	2	1	2	94	Done.bmp	mission	156252	Get ready for the first game to start.	M1	Blocks	26	0	2600	1	28	26	26	.	dress.bmp	265174		0	0	disp	List3	-10	10	263671	5	1464	265135	drghs	con@
PictureTask_List_A	2164	1	<?xml version="1.0"?>\n<Clock xmlns:dt="urn:schemas-microsoft-com:datatypes"><Description dt:dt="string">E-Prime Primary Realtime Clock</Description><StartTime><Timestamp dt:dt="int">0</Timestamp><DateUtc dt:dt="string">2010-07-29T18:43:38Z</DateUtc></StartTime><FrequencyChanges><FrequencyChange><Frequency dt:dt="r8">2793150000</Frequency><Timestamp dt:dt="r8">24335743742057</Timestamp><Current dt:dt="r8">0</Current><DateUtc dt:dt="string">2010-07-29T18:43:38Z</DateUtc></FrequencyChange></FrequencyChanges></Clock>\n	7/29/2010 1:43:38 PM	59.870	1	673331072	07-29-2010	13:43:38	6:43:38 PM	2	2	1	2	94	Done.bmp	mission	156252	Get ready for the first game to start.	M1	Blocks	27	1	2200	1	29	27	27	.	dress.bmp	269267		0	0	disp	List3	-2	2	267763	6	1244	269007	dress	match@
PictureTask_List_A	2164	1	<?xml version="1.0"?>\n<Clock xmlns:dt="urn:schemas-microsoft-com:datatypes"><Description dt:dt="string">E-Prime Primary Realtime Clock</Description><StartTime><Timestamp dt:dt="int">0</Timestamp><DateUtc dt:dt="string">2010-07-29T18:43:38Z</DateUtc></StartTime><FrequencyChanges><FrequencyChange><Frequency dt:dt="r8">2793150000</Frequency><Timestamp dt:dt="r8">24335743742057</Timestamp><Current dt:dt="r8">0</Current><DateUtc dt:dt="string">2010-07-29T18:43:38Z</DateUtc></FrequencyChange></FrequencyChanges></Clock>\n	7/29/2010 1:43:38 PM	59.870	1	673331072	07-29-2010	13:43:38	6:43:38 PM	2	2	1	2	94	Done.bmp	mission	156252	Get ready for the first game to start.	M1	Blocks	28	0	3000	1	30	28	28	.	dress.bmp	272975		0	0	disp	List3	-10	10	271471	5	936	272407	dreak	psw@
PictureTask_List_A	2164	1	<?xml version="1.0"?>\n<Clock xmlns:dt="urn:schemas-microsoft-com:datatypes"><Description dt:dt="string">E-Prime Primary Realtime Clock</Description><StartTime><Timestamp dt:dt="int">0</Timestamp><DateUtc dt:dt="string">2010-07-29T18:43:38Z</DateUtc></StartTime><FrequencyChanges><FrequencyChange><Frequency dt:dt="r8">2793150000</Frequency><Timestamp dt:dt="r8">24335743742057</Timestamp><Current dt:dt="r8">0</Current><DateUtc dt:dt="string">2010-07-29T18:43:38Z</DateUtc></FrequencyChange></FrequencyChanges></Clock>\n	7/29/2010 1:43:38 PM	59.870	1	673331072	07-29-2010	13:43:38	6:43:38 PM	2	2	1	2	94	Done.bmp	mission	156252	Get ready for the first game to start.	M1	Blocks	29	0	3100	1	31	29	29	.	bkgd.bmp	277468		0	0	disp	List3	-3	3	275964		0	0		@
PictureTask_List_A	2164	1	<?xml version="1.0"?>\n<Clock xmlns:dt="urn:schemas-microsoft-com:datatypes"><Description dt:dt="string">E-Prime Primary Realtime Clock</Description><StartTime><Timestamp dt:dt="int">0</Timestamp><DateUtc dt:dt="string">2010-07-29T18:43:38Z</DateUtc></StartTime><FrequencyChanges><FrequencyChange><Frequency dt:dt="r8">2793150000</Frequency><Timestamp dt:dt="r8">24335743742057</Timestamp><Current dt:dt="r8">0</Current><DateUtc dt:dt="string">2010-07-29T18:43:38Z</DateUtc></FrequencyChange></FrequencyChanges></Clock>\n	7/29/2010 1:43:38 PM	59.870	1	673331072	07-29-2010	13:43:38	6:43:38 PM	2	2	1	2	94	Done.bmp	mission	156252	Get ready for the first game to start.	M1	Blocks	30	0	1600	1	32	30	30	.	nose.bmp	282061		0	0	disp	List3	-13	13	280574		0	0		@
PictureTask_List_A	2164	1	<?xml version="1.0"?>\n<Clock xmlns:dt="urn:schemas-microsoft-com:datatypes"><Description dt:dt="string">E-Prime Primary Realtime Clock</Description><StartTime><Timestamp dt:dt="int">0</Timestamp><DateUtc dt:dt="string">2010-07-29T18:43:38Z</DateUtc></StartTime><FrequencyChanges><FrequencyChange><Frequency dt:dt="r8">2793150000</Frequency><Timestamp dt:dt="r8">24335743742057</Timestamp><Current dt:dt="r8">0</Current><DateUtc dt:dt="string">2010-07-29T18:43:38Z</DateUtc></FrequencyChange></FrequencyChanges></Clock>\n	7/29/2010 1:43:38 PM	59.870	1	673331072	07-29-2010	13:43:38	6:43:38 PM	2	2	1	2	94	Done.bmp	mission	156252	Get ready for the first game to start.	M1	Blocks	31	0	3000	1	33	31	31	.	nose.bmp	285168		0	0	disp	List3	-4	4	283665	5	998	284663	note	wrd@
PictureTask_List_A	2164	1	<?xml version="1.0"?>\n<Clock xmlns:dt="urn:schemas-microsoft-com:datatypes"><Description dt:dt="string">E-Prime Primary Realtime Clock</Description><StartTime><Timestamp dt:dt="int">0</Timestamp><DateUtc dt:dt="string">2010-07-29T18:43:38Z</DateUtc></StartTime><FrequencyChanges><FrequencyChange><Frequency dt:dt="r8">2793150000</Frequency><Timestamp dt:dt="r8">24335743742057</Timestamp><Current dt:dt="r8">0</Current><DateUtc dt:dt="string">2010-07-29T18:43:38Z</DateUtc></FrequencyChange></FrequencyChanges></Clock>\n	7/29/2010 1:43:38 PM	59.870	1	673331072	07-29-2010	13:43:38	6:43:38 PM	2	2	1	2	94	Done.bmp	mission	156252	Get ready for the first game to start.	M1	Blocks	32	0	1900	1	34	32	32	.	nose.bmp	289661		0	0	disp	List3	-13	13	288174		0	0	noke	psw@
PictureTask_List_A	2164	1	<?xml version="1.0"?>\n<Clock xmlns:dt="urn:schemas-microsoft-com:datatypes"><Description dt:dt="string">E-Prime Primary Realtime Clock</Description><StartTime><Timestamp dt:dt="int">0</Timestamp><DateUtc dt:dt="string">2010-07-29T18:43:38Z</DateUtc></StartTime><FrequencyChanges><FrequencyChange><Frequency dt:dt="r8">2793150000</Frequency><Timestamp dt:dt="r8">24335743742057</Timestamp><Current dt:dt="r8">0</Current><DateUtc dt:dt="string">2010-07-29T18:43:38Z</DateUtc></FrequencyChange></FrequencyChanges></Clock>\n	7/29/2010 1:43:38 PM	59.870	1	673331072	07-29-2010	13:43:38	6:43:38 PM	2	2	1	2	94	Done.bmp	mission	156252	Get ready for the first game to start.	M1	Blocks	33	0	2800	1	35	33	33	.	nose.bmp	293068		0	0	disp	List3	-4	4	291565		0	0	nest	wrd@
PictureTask_List_A	2164	1	<?xml version="1.0"?>\n<Clock xmlns:dt="urn:schemas-microsoft-com:datatypes"><Description dt:dt="string">E-Prime Primary Realtime Clock</Description><StartTime><Timestamp dt:dt="int">0</Timestamp><DateUtc dt:dt="string">2010-07-29T18:43:38Z</DateUtc></StartTime><FrequencyChanges><FrequencyChange><Frequency dt:dt="r8">2793150000</Frequency><Timestamp dt:dt="r8">24335743742057</Timestamp><Current dt:dt="r8">0</Current><DateUtc dt:dt="string">2010-07-29T18:43:38Z</DateUtc></FrequencyChange></FrequencyChanges></Clock>\n	7/29/2010 1:43:38 PM	59.870	1	673331072	07-29-2010	13:43:38	6:43:38 PM	2	2	1	2	94	Done.bmp	mission	156252	Get ready for the first game to start.	M1	Blocks	34	1	2300	1	36	34	34	.	nose.bmp	297361		0	0	disp	List3	-13	13	295874	6	852	296726	nose	match@
PictureTask_List_A	2164	1	<?xml version="1.0"?>\n<Clock xmlns:dt="urn:schemas-microsoft-com:datatypes"><Description dt:dt="string">E-Prime Primary Realtime Clock</Description><StartTime><Timestamp dt:dt="int">0</Timestamp><DateUtc dt:dt="string">2010-07-29T18:43:38Z</DateUtc></StartTime><FrequencyChanges><FrequencyChange><Frequency dt:dt="r8">2793150000</Frequency><Timestamp dt:dt="r8">24335743742057</Timestamp><Current dt:dt="r8">0</Current><DateUtc dt:dt="string">2010-07-29T18:43:38Z</DateUtc></FrequencyChange></FrequencyChanges></Clock>\n	7/29/2010 1:43:38 PM	59.870	1	673331072	07-29-2010	13:43:38	6:43:38 PM	2	2	1	2	94	Done.bmp	mission	156252	Get ready for the first game to start.	M1	Blocks	35	0	1900	1	37	35	35	.	nose.bmp	301169		0	0	disp	List3	-5	5	299666	5	1188	300854	nspn	con@
PictureTask_List_A	2164	1	<?xml version="1.0"?>\n<Clock xmlns:dt="urn:schemas-microsoft-com:datatypes"><Description dt:dt="string">E-Prime Primary Realtime Clock</Description><StartTime><Timestamp dt:dt="int">0</Timestamp><DateUtc dt:dt="string">2010-07-29T18:43:38Z</DateUtc></StartTime><FrequencyChanges><FrequencyChange><Frequency dt:dt="r8">2793150000</Frequency><Timestamp dt:dt="r8">24335743742057</Timestamp><Current dt:dt="r8">0</Current><DateUtc dt:dt="string">2010-07-29T18:43:38Z</DateUtc></FrequencyChange></FrequencyChanges></Clock>\n	7/29/2010 1:43:38 PM	59.870	1	673331072	07-29-2010	13:43:38	6:43:38 PM	2	2	1	2	94	Done.bmp	mission	156252	Get ready for the first game to start.	M1	Blocks	36	0	1600	1	38	36	36	.	nose.bmp	304560		0	0	disp	List3	-12	12	303073	5	1429	304502	nost	psw@
PictureTask_List_A	2164	1	<?xml version="1.0"?>\n<Clock xmlns:dt="urn:schemas-microsoft-com:datatypes"><Description dt:dt="string">E-Prime Primary Realtime Clock</Description><StartTime><Timestamp dt:dt="int">0</Timestamp><DateUtc dt:dt="string">2010-07-29T18:43:38Z</DateUtc></StartTime><FrequencyChanges><FrequencyChange><Frequency dt:dt="r8">2793150000</Frequency><Timestamp dt:dt="r8">24335743742057</Timestamp><Current dt:dt="r8">0</Current><DateUtc dt:dt="string">2010-07-29T18:43:38Z</DateUtc></FrequencyChange></FrequencyChanges></Clock>\n	7/29/2010 1:43:38 PM	59.870	1	673331072	07-29-2010	13:43:38	6:43:38 PM	2	2	1	2	94	Done.bmp	mission	156252	Get ready for the first game to start.	M1	Blocks	37	0	1900	1	39	37	37	.	nose.bmp	307667		0	0	disp	List3	-2	2	306163	5	867	307030	ndsr	con@
PictureTask_List_A	2164	1	<?xml version="1.0"?>\n<Clock xmlns:dt="urn:schemas-microsoft-com:datatypes"><Description dt:dt="string">E-Prime Primary Realtime Clock</Description><StartTime><Timestamp dt:dt="int">0</Timestamp><DateUtc dt:dt="string">2010-07-29T18:43:38Z</DateUtc></StartTime><FrequencyChanges><FrequencyChange><Frequency dt:dt="r8">2793150000</Frequency><Timestamp dt:dt="r8">24335743742057</Timestamp><Current dt:dt="r8">0</Current><DateUtc dt:dt="string">2010-07-29T18:43:38Z</DateUtc></FrequencyChange></FrequencyChanges></Clock>\n	7/29/2010 1:43:38 PM	59.870	1	673331072	07-29-2010	13:43:38	6:43:38 PM	2	2	1	2	94	Done.bmp	mission	156252	Get ready for the first game to start.	M1	Blocks	38	0	3200	1	40	38	38	.	bkgd.bmp	311074		0	0	disp	List3	-10	10	309571		0	0		@
PictureTask_List_A	2164	1	<?xml version="1.0"?>\n<Clock xmlns:dt="urn:schemas-microsoft-com:datatypes"><Description dt:dt="string">E-Prime Primary Realtime Clock</Description><StartTime><Timestamp dt:dt="int">0</Timestamp><DateUtc dt:dt="string">2010-07-29T18:43:38Z</DateUtc></StartTime><FrequencyChanges><FrequencyChange><Frequency dt:dt="r8">2793150000</Frequency><Timestamp dt:dt="r8">24335743742057</Timestamp><Current dt:dt="r8">0</Current><DateUtc dt:dt="string">2010-07-29T18:43:38Z</DateUtc></FrequencyChange></FrequencyChanges></Clock>\n	7/29/2010 1:43:38 PM	59.870	1	673331072	07-29-2010	13:43:38	6:43:38 PM	2	2	1	2	94	Done.bmp	mission	156252	Get ready for the first game to start.	M1	Blocks	39	0	2600	1	41	39	39	.	lamp.bmp	315768		0	0	disp	List3	-3	3	314264		0	0		@
PictureTask_List_A	2164	1	<?xml version="1.0"?>\n<Clock xmlns:dt="urn:schemas-microsoft-com:datatypes"><Description dt:dt="string">E-Prime Primary Realtime Clock</Description><StartTime><Timestamp dt:dt="int">0</Timestamp><DateUtc dt:dt="string">2010-07-29T18:43:38Z</DateUtc></StartTime><FrequencyChanges><FrequencyChange><Frequency dt:dt="r8">2793150000</Frequency><Timestamp dt:dt="r8">24335743742057</Timestamp><Current dt:dt="r8">0</Current><DateUtc dt:dt="string">2010-07-29T18:43:38Z</DateUtc></FrequencyChange></FrequencyChanges></Clock>\n	7/29/2010 1:43:38 PM	59.870	1	673331072	07-29-2010	13:43:38	6:43:38 PM	2	2	1	2	94	Done.bmp	mission	156252	Get ready for the first game to start.	M1	Blocks	40	0	1600	1	42	40	40	.	lamp.bmp	319860		0	0	disp	List3	-12	12	318373	5	1249	319622	lamb	wrd@
PictureTask_List_A	2164	1	<?xml version="1.0"?>\n<Clock xmlns:dt="urn:schemas-microsoft-com:datatypes"><Description dt:dt="string">E-Prime Primary Realtime Clock</Description><StartTime><Timestamp dt:dt="int">0</Timestamp><DateUtc dt:dt="string">2010-07-29T18:43:38Z</DateUtc></StartTime><FrequencyChanges><FrequencyChange><Frequency dt:dt="r8">2793150000</Frequency><Timestamp dt:dt="r8">24335743742057</Timestamp><Current dt:dt="r8">0</Current><DateUtc dt:dt="string">2010-07-29T18:43:38Z</DateUtc></FrequencyChange></FrequencyChanges></Clock>\n	7/29/2010 1:43:38 PM	59.870	1	673331072	07-29-2010	13:43:38	6:43:38 PM	2	2	1	2	94	Done.bmp	mission	156252	Get ready for the first game to start.	M1	Blocks	41	1	2400	1	43	41	41	.	lamp.bmp	322966		0	0	disp	List3	-2	2	321463	6	1031	322494	lamp	match@
PictureTask_List_A	2164	1	<?xml version="1.0"?>\n<Clock xmlns:dt="urn:schemas-microsoft-com:datatypes"><Description dt:dt="string">E-Prime Primary Realtime Clock</Description><StartTime><Timestamp dt:dt="int">0</Timestamp><DateUtc dt:dt="string">2010-07-29T18:43:38Z</DateUtc></StartTime><FrequencyChanges><FrequencyChange><Frequency dt:dt="r8">2793150000</Frequency><Timestamp dt:dt="r8">24335743742057</Timestamp><Current dt:dt="r8">0</Current><DateUtc dt:dt="string">2010-07-29T18:43:38Z</DateUtc></FrequencyChange></FrequencyChanges></Clock>\n	7/29/2010 1:43:38 PM	59.870	1	673331072	07-29-2010	13:43:38	6:43:38 PM	2	2	1	2	94	Done.bmp	mission	156252	Get ready for the first game to start.	M1	Blocks	42	0	1500	1	44	42	42	.	lamp.bmp	326875		0	0	disp	List3	-11	11	325372	5	1146	326518	land	wrd@
PictureTask_List_A	2164	1	<?xml version="1.0"?>\n<Clock xmlns:dt="urn:schemas-microsoft-com:datatypes"><Description dt:dt="string">E-Prime Primary Realtime Clock</Description><StartTime><Timestamp dt:dt="int">0</Timestamp><DateUtc dt:dt="string">2010-07-29T18:43:38Z</DateUtc></StartTime><FrequencyChanges><FrequencyChange><Frequency dt:dt="r8">2793150000</Frequency><Timestamp dt:dt="r8">24335743742057</Timestamp><Current dt:dt="r8">0</Current><DateUtc dt:dt="string">2010-07-29T18:43:38Z</DateUtc></FrequencyChange></FrequencyChanges></Clock>\n	7/29/2010 1:43:38 PM	59.870	1	673331072	07-29-2010	13:43:38	6:43:38 PM	2	2	1	2	94	Done.bmp	mission	156252	Get ready for the first game to start.	M1	Blocks	43	0	2400	1	45	43	43	.	lamp.bmp	329865		0	0	disp	List3	-1	1	328362		0	0	lhvp	con@
PictureTask_List_A	2164	1	<?xml version="1.0"?>\n<Clock xmlns:dt="urn:schemas-microsoft-com:datatypes"><Description dt:dt="string">E-Prime Primary Realtime Clock</Description><StartTime><Timestamp dt:dt="int">0</Timestamp><DateUtc dt:dt="string">2010-07-29T18:43:38Z</DateUtc></StartTime><FrequencyChanges><FrequencyChange><Frequency dt:dt="r8">2793150000</Frequency><Timestamp dt:dt="r8">24335743742057</Timestamp><Current dt:dt="r8">0</Current><DateUtc dt:dt="string">2010-07-29T18:43:38Z</DateUtc></FrequencyChange></FrequencyChanges></Clock>\n	7/29/2010 1:43:38 PM	59.870	1	673331072	07-29-2010	13:43:38	6:43:38 PM	2	2	1	2	94	Done.bmp	mission	156252	Get ready for the first game to start.	M1	Blocks	44	0	2400	1	46	44	44	.	lamp.bmp	333773		0	0	disp	List3	-9	9	332270		0	0	lang	psw@
PictureTask_List_A	2164	1	<?xml version="1.0"?>\n<Clock xmlns:dt="urn:schemas-microsoft-com:datatypes"><Description dt:dt="string">E-Prime Primary Realtime Clock</Description><StartTime><Timestamp dt:dt="int">0</Timestamp><DateUtc dt:dt="string">2010-07-29T18:43:38Z</DateUtc></StartTime><FrequencyChanges><FrequencyChange><Frequency dt:dt="r8">2793150000</Frequency><Timestamp dt:dt="r8">24335743742057</Timestamp><Current dt:dt="r8">0</Current><DateUtc dt:dt="string">2010-07-29T18:43:38Z</DateUtc></FrequencyChange></FrequencyChanges></Clock>\n	7/29/2010 1:43:38 PM	59.870	1	673331072	07-29-2010	13:43:38	6:43:38 PM	2	2	1	2	94	Done.bmp	mission	156252	Get ready for the first game to start.	M1	Blocks	45	0	2500	1	47	45	45	.	lamp.bmp	337665		0	0	disp	List3	-1	1	336162	5	932	337094	lpmk	con@
PictureTask_List_A	2164	1	<?xml version="1.0"?>\n<Clock xmlns:dt="urn:schemas-microsoft-com:datatypes"><Description dt:dt="string">E-Prime Primary Realtime Clock</Description><StartTime><Timestamp dt:dt="int">0</Timestamp><DateUtc dt:dt="string">2010-07-29T18:43:38Z</DateUtc></StartTime><FrequencyChanges><FrequencyChange><Frequency dt:dt="r8">2793150000</Frequency><Timestamp dt:dt="r8">24335743742057</Timestamp><Current dt:dt="r8">0</Current><DateUtc dt:dt="string">2010-07-29T18:43:38Z</DateUtc></FrequencyChange></FrequencyChanges></Clock>\n	7/29/2010 1:43:38 PM	59.870	1	673331072	07-29-2010	13:43:38	6:43:38 PM	2	2	1	2	94	Done.bmp	mission	156252	Get ready for the first game to start.	M1	Blocks	46	0	2200	1	48	46	46	.	lamp.bmp	341674		0	0	disp	List3	-9	9	340170	5	964	341134	lirp	psw@
PictureTask_List_A	2164	1	<?xml version="1.0"?>\n<Clock xmlns:dt="urn:schemas-microsoft-com:datatypes"><Description dt:dt="string">E-Prime Primary Realtime Clock</Description><StartTime><Timestamp dt:dt="int">0</Timestamp><DateUtc dt:dt="string">2010-07-29T18:43:38Z</DateUtc></StartTime><FrequencyChanges><FrequencyChange><Frequency dt:dt="r8">2793150000</Frequency><Timestamp dt:dt="r8">24335743742057</Timestamp><Current dt:dt="r8">0</Current><DateUtc dt:dt="string">2010-07-29T18:43:38Z</DateUtc></FrequencyChange></FrequencyChanges></Clock>\n	7/29/2010 1:43:38 PM	59.870	1	673331072	07-29-2010	13:43:38	6:43:38 PM	2	2	1	2	94	Done.bmp	mission	156252	Get ready for the first game to start.	M1	Blocks	47	0	4100	1	49	47	47	.	bkgd.bmp	345365		0	0	disp	List3	-1	1	343862		0	0		@
PictureTask_List_A	2164	1	<?xml version="1.0"?>\n<Clock xmlns:dt="urn:schemas-microsoft-com:datatypes"><Description dt:dt="string">E-Prime Primary Realtime Clock</Description><StartTime><Timestamp dt:dt="int">0</Timestamp><DateUtc dt:dt="string">2010-07-29T18:43:38Z</DateUtc></StartTime><FrequencyChanges><FrequencyChange><Frequency dt:dt="r8">2793150000</Frequency><Timestamp dt:dt="r8">24335743742057</Timestamp><Current dt:dt="r8">0</Current><DateUtc dt:dt="string">2010-07-29T18:43:38Z</DateUtc></FrequencyChange></FrequencyChanges></Clock>\n	7/29/2010 1:43:38 PM	59.870	1	673331072	07-29-2010	13:43:38	6:43:38 PM	2	2	1	2	94	Done.bmp	mission	156252	Get ready for the first game to start.	M1	Blocks	48	0	3000	1	50	48	48	.	rose.bmp	350961		0	0	disp	List3	-13	13	349474		0	0		@
PictureTask_List_A	2164	1	<?xml version="1.0"?>\n<Clock xmlns:dt="urn:schemas-microsoft-com:datatypes"><Description dt:dt="string">E-Prime Primary Realtime Clock</Description><StartTime><Timestamp dt:dt="int">0</Timestamp><DateUtc dt:dt="string">2010-07-29T18:43:38Z</DateUtc></StartTime><FrequencyChanges><FrequencyChange><Frequency dt:dt="r8">2793150000</Frequency><Timestamp dt:dt="r8">24335743742057</Timestamp><Current dt:dt="r8">0</Current><DateUtc dt:dt="string">2010-07-29T18:43:38Z</DateUtc></FrequencyChange></FrequencyChanges></Clock>\n	7/29/2010 1:43:38 PM	59.870	1	673331072	07-29-2010	13:43:38	6:43:38 PM	2	2	1	2	94	Done.bmp	mission	156252	Get ready for the first game to start.	M1	Blocks	49	0	1800	1	51	49	49	.	rose.bmp	355470		0	0	disp	List3	-6	6	353967	5	854	354821	rfks	con@
PictureTask_List_A	2164	1	<?xml version="1.0"?>\n<Clock xmlns:dt="urn:schemas-microsoft-com:datatypes"><Description dt:dt="string">E-Prime Primary Realtime Clock</Description><StartTime><Timestamp dt:dt="int">0</Timestamp><DateUtc dt:dt="string">2010-07-29T18:43:38Z</DateUtc></StartTime><FrequencyChanges><FrequencyChange><Frequency dt:dt="r8">2793150000</Frequency><Timestamp dt:dt="r8">24335743742057</Timestamp><Current dt:dt="r8">0</Current><DateUtc dt:dt="string">2010-07-29T18:43:38Z</DateUtc></FrequencyChange></FrequencyChanges></Clock>\n	7/29/2010 1:43:38 PM	59.870	1	673331072	07-29-2010	13:43:38	6:43:38 PM	2	2	1	2	94	Done.bmp	mission	156252	Get ready for the first game to start.	M1	Blocks	50	0	1900	1	52	50	50	.	rose.bmp	358761		0	0	disp	List3	-13	13	357274	5	1131	358405	rope	wrd@
PictureTask_List_A	2164	1	<?xml version="1.0"?>\n<Clock xmlns:dt="urn:schemas-microsoft-com:datatypes"><Description dt:dt="string">E-Prime Primary Realtime Clock</Description><StartTime><Timestamp dt:dt="int">0</Timestamp><DateUtc dt:dt="string">2010-07-29T18:43:38Z</DateUtc></StartTime><FrequencyChanges><FrequencyChange><Frequency dt:dt="r8">2793150000</Frequency><Timestamp dt:dt="r8">24335743742057</Timestamp><Current dt:dt="r8">0</Current><DateUtc dt:dt="string">2010-07-29T18:43:38Z</DateUtc></FrequencyChange></FrequencyChanges></Clock>\n	7/29/2010 1:43:38 PM	59.870	1	673331072	07-29-2010	13:43:38	6:43:38 PM	2	2	1	2	94	Done.bmp	mission	156252	Get ready for the first game to start.	M1	Blocks	51	1	2600	1	53	51	51	.	rose.bmp	362168		0	0	disp	List3	-4	4	360665	6	852	361517	rose	match@
PictureTask_List_A	2164	1	<?xml version="1.0"?>\n<Clock xmlns:dt="urn:schemas-microsoft-com:datatypes"><Description dt:dt="string">E-Prime Primary Realtime Clock</Description><StartTime><Timestamp dt:dt="int">0</Timestamp><DateUtc dt:dt="string">2010-07-29T18:43:38Z</DateUtc></StartTime><FrequencyChanges><FrequencyChange><Frequency dt:dt="r8">2793150000</Frequency><Timestamp dt:dt="r8">24335743742057</Timestamp><Current dt:dt="r8">0</Current><DateUtc dt:dt="string">2010-07-29T18:43:38Z</DateUtc></FrequencyChange></FrequencyChanges></Clock>\n	7/29/2010 1:43:38 PM	59.870	1	673331072	07-29-2010	13:43:38	6:43:38 PM	2	2	1	2	94	Done.bmp	mission	156252	Get ready for the first game to start.	M1	Blocks	52	0	1600	1	54	52	52	.	rose.bmp	366260		0	0	disp	List3	-13	13	364774	5	1015	365789	rise	wrd@
PictureTask_List_A	2164	1	<?xml version="1.0"?>\n<Clock xmlns:dt="urn:schemas-microsoft-com:datatypes"><Description dt:dt="string">E-Prime Primary Realtime Clock</Description><StartTime><Timestamp dt:dt="int">0</Timestamp><DateUtc dt:dt="string">2010-07-29T18:43:38Z</DateUtc></StartTime><FrequencyChanges><FrequencyChange><Frequency dt:dt="r8">2793150000</Frequency><Timestamp dt:dt="r8">24335743742057</Timestamp><Current dt:dt="r8">0</Current><DateUtc dt:dt="string">2010-07-29T18:43:38Z</DateUtc></FrequencyChange></FrequencyChanges></Clock>\n	7/29/2010 1:43:38 PM	59.870	1	673331072	07-29-2010	13:43:38	6:43:38 PM	2	2	1	2	94	Done.bmp	mission	156252	Get ready for the first game to start.	M1	Blocks	53	0	2100	1	55	53	53	.	rose.bmp	369367		0	0	disp	List3	-3	3	367864	5	893	368757	rspk	con@
PictureTask_List_A	2164	1	<?xml version="1.0"?>\n<Clock xmlns:dt="urn:schemas-microsoft-com:datatypes"><Description dt:dt="string">E-Prime Primary Realtime Clock</Description><StartTime><Timestamp dt:dt="int">0</Timestamp><DateUtc dt:dt="string">2010-07-29T18:43:38Z</DateUtc></StartTime><FrequencyChanges><FrequencyChange><Frequency dt:dt="r8">2793150000</Frequency><Timestamp dt:dt="r8">24335743742057</Timestamp><Current dt:dt="r8">0</Current><DateUtc dt:dt="string">2010-07-29T18:43:38Z</DateUtc></FrequencyChange></FrequencyChanges></Clock>\n	7/29/2010 1:43:38 PM	59.870	1	673331072	07-29-2010	13:43:38	6:43:38 PM	2	2	1	2	94	Done.bmp	mission	156252	Get ready for the first game to start.	M1	Blocks	54	1	1900	1	56	54	54	.	rose.bmp	372975		0	0	disp	List3	-11	11	371472	6	909	372381	rose	match@
PictureTask_List_A	2164	1	<?xml version="1.0"?>\n<Clock xmlns:dt="urn:schemas-microsoft-com:datatypes"><Description dt:dt="string">E-Prime Primary Realtime Clock</Description><StartTime><Timestamp dt:dt="int">0</Timestamp><DateUtc dt:dt="string">2010-07-29T18:43:38Z</DateUtc></StartTime><FrequencyChanges><FrequencyChange><Frequency dt:dt="r8">2793150000</Frequency><Timestamp dt:dt="r8">24335743742057</Timestamp><Current dt:dt="r8">0</Current><DateUtc dt:dt="string">2010-07-29T18:43:38Z</DateUtc></FrequencyChange></FrequencyChanges></Clock>\n	7/29/2010 1:43:38 PM	59.870	1	673331072	07-29-2010	13:43:38	6:43:38 PM	2	2	1	2	94	Done.bmp	mission	156252	Get ready for the first game to start.	M1	Blocks	55	0	2200	1	57	55	55	.	rose.bmp	376366		0	0	disp	List3	-1	1	374862	5	847	375709	rofe	psw@
PictureTask_List_A	2164	1	<?xml version="1.0"?>\n<Clock xmlns:dt="urn:schemas-microsoft-com:datatypes"><Description dt:dt="string">E-Prime Primary Realtime Clock</Description><StartTime><Timestamp dt:dt="int">0</Timestamp><DateUtc dt:dt="string">2010-07-29T18:43:38Z</DateUtc></StartTime><FrequencyChanges><FrequencyChange><Frequency dt:dt="r8">2793150000</Frequency><Timestamp dt:dt="r8">24335743742057</Timestamp><Current dt:dt="r8">0</Current><DateUtc dt:dt="string">2010-07-29T18:43:38Z</DateUtc></FrequencyChange></FrequencyChanges></Clock>\n	7/29/2010 1:43:38 PM	59.870	1	673331072	07-29-2010	13:43:38	6:43:38 PM	2	2	1	2	94	Done.bmp	mission	156252	Get ready for the first game to start.	M1	Blocks	56	0	1600	1	58	56	56	.	rose.bmp	380074		0	0	disp	List3	-9	9	378570	5	683	379253	rolt	psw@
PictureTask_List_A	2164	1	<?xml version="1.0"?>\n<Clock xmlns:dt="urn:schemas-microsoft-com:datatypes"><Description dt:dt="string">E-Prime Primary Realtime Clock</Description><StartTime><Timestamp dt:dt="int">0</Timestamp><DateUtc dt:dt="string">2010-07-29T18:43:38Z</DateUtc></StartTime><FrequencyChanges><FrequencyChange><Frequency dt:dt="r8">2793150000</Frequency><Timestamp dt:dt="r8">24335743742057</Timestamp><Current dt:dt="r8">0</Current><DateUtc dt:dt="string">2010-07-29T18:43:38Z</DateUtc></FrequencyChange></FrequencyChanges></Clock>\n	7/29/2010 1:43:38 PM	59.870	1	673331072	07-29-2010	13:43:38	6:43:38 PM	2	2	1	2	94	Done.bmp	mission	156252	Get ready for the first game to start.	M1	Blocks	57	0	3000	1	59	57	57	.	bkgd.bmp	383164		0	0	disp	List3	1	-1	381660		0	0		@
PictureTask_List_A	2164	1	<?xml version="1.0"?>\n<Clock xmlns:dt="urn:schemas-microsoft-com:datatypes"><Description dt:dt="string">E-Prime Primary Realtime Clock</Description><StartTime><Timestamp dt:dt="int">0</Timestamp><DateUtc dt:dt="string">2010-07-29T18:43:38Z</DateUtc></StartTime><FrequencyChanges><FrequencyChange><Frequency dt:dt="r8">2793150000</Frequency><Timestamp dt:dt="r8">24335743742057</Timestamp><Current dt:dt="r8">0</Current><DateUtc dt:dt="string">2010-07-29T18:43:38Z</DateUtc></FrequencyChange></FrequencyChanges></Clock>\n	7/29/2010 1:43:38 PM	59.870	1	673331072	07-29-2010	13:43:38	6:43:38 PM	2	2	1	2	94	Done.bmp	mission	156252	Get ready for the first game to start.	M1	Blocks	58	0	1700	1	60	58	58	.	shell.bmp	387674		0	0	disp	List3	-9	9	386170		0	0		@
PictureTask_List_A	2164	1	<?xml version="1.0"?>\n<Clock xmlns:dt="urn:schemas-microsoft-com:datatypes"><Description dt:dt="string">E-Prime Primary Realtime Clock</Description><StartTime><Timestamp dt:dt="int">0</Timestamp><DateUtc dt:dt="string">2010-07-29T18:43:38Z</DateUtc></StartTime><FrequencyChanges><FrequencyChange><Frequency dt:dt="r8">2793150000</Frequency><Timestamp dt:dt="r8">24335743742057</Timestamp><Current dt:dt="r8">0</Current><DateUtc dt:dt="string">2010-07-29T18:43:38Z</DateUtc></FrequencyChange></FrequencyChanges></Clock>\n	7/29/2010 1:43:38 PM	59.870	1	673331072	07-29-2010	13:43:38	6:43:38 PM	2	2	1	2	94	Done.bmp	mission	156252	Get ready for the first game to start.	M1	Blocks	59	0	2000	1	61	59	59	.	shell.bmp	390864		0	0	disp	List3	0	0	389361		0	0	sllhl	con@
PictureTask_List_A	2164	1	<?xml version="1.0"?>\n<Clock xmlns:dt="urn:schemas-microsoft-com:datatypes"><Description dt:dt="string">E-Prime Primary Realtime Clock</Description><StartTime><Timestamp dt:dt="int">0</Timestamp><DateUtc dt:dt="string">2010-07-29T18:43:38Z</DateUtc></StartTime><FrequencyChanges><FrequencyChange><Frequency dt:dt="r8">2793150000</Frequency><Timestamp dt:dt="r8">24335743742057</Timestamp><Current dt:dt="r8">0</Current><DateUtc dt:dt="string">2010-07-29T18:43:38Z</DateUtc></FrequencyChange></FrequencyChanges></Clock>\n	7/29/2010 1:43:38 PM	59.870	1	673331072	07-29-2010	13:43:38	6:43:38 PM	2	2	1	2	94	Done.bmp	mission	156252	Get ready for the first game to start.	M1	Blocks	60	0	2800	1	62	60	60	.	shell.bmp	394371		0	0	disp	List3	-7	7	392868	5	704	393572	sheet	wrd@
PictureTask_List_A	2164	1	<?xml version="1.0"?>\n<Clock xmlns:dt="urn:schemas-microsoft-com:datatypes"><Description dt:dt="string">E-Prime Primary Realtime Clock</Description><StartTime><Timestamp dt:dt="int">0</Timestamp><DateUtc dt:dt="string">2010-07-29T18:43:38Z</DateUtc></StartTime><FrequencyChanges><FrequencyChange><Frequency dt:dt="r8">2793150000</Frequency><Timestamp dt:dt="r8">24335743742057</Timestamp><Current dt:dt="r8">0</Current><DateUtc dt:dt="string">2010-07-29T18:43:38Z</DateUtc></FrequencyChange></FrequencyChanges></Clock>\n	7/29/2010 1:43:38 PM	59.870	1	673331072	07-29-2010	13:43:38	6:43:38 PM	2	2	1	2	94	Done.bmp	mission	156252	Get ready for the first game to start.	M1	Blocks	61	0	2200	1	63	61	61	.	shell.bmp	398664		0	0	disp	List3	0	0	397161	5	627	397788	shile	psw@
PictureTask_List_A	2164	1	<?xml version="1.0"?>\n<Clock xmlns:dt="urn:schemas-microsoft-com:datatypes"><Description dt:dt="string">E-Prime Primary Realtime Clock</Description><StartTime><Timestamp dt:dt="int">0</Timestamp><DateUtc dt:dt="string">2010-07-29T18:43:38Z</DateUtc></StartTime><FrequencyChanges><FrequencyChange><Frequency dt:dt="r8">2793150000</Frequency><Timestamp dt:dt="r8">24335743742057</Timestamp><Current dt:dt="r8">0</Current><DateUtc dt:dt="string">2010-07-29T18:43:38Z</DateUtc></FrequencyChange></FrequencyChanges></Clock>\n	7/29/2010 1:43:38 PM	59.870	1	673331072	07-29-2010	13:43:38	6:43:38 PM	2	2	1	2	94	Done.bmp	mission	156252	Get ready for the first game to start.	M1	Blocks	62	0	1600	1	64	62	62	.	shell.bmp	402372		0	0	disp	List3	-8	8	400869	5	1103	401972	sheep	wrd@
PictureTask_List_A	2164	1	<?xml version="1.0"?>\n<Clock xmlns:dt="urn:schemas-microsoft-com:datatypes"><Description dt:dt="string">E-Prime Primary Realtime Clock</Description><StartTime><Timestamp dt:dt="int">0</Timestamp><DateUtc dt:dt="string">2010-07-29T18:43:38Z</DateUtc></StartTime><FrequencyChanges><FrequencyChange><Frequency dt:dt="r8">2793150000</Frequency><Timestamp dt:dt="r8">24335743742057</Timestamp><Current dt:dt="r8">0</Current><DateUtc dt:dt="string">2010-07-29T18:43:38Z</DateUtc></FrequencyChange></FrequencyChanges></Clock>\n	7/29/2010 1:43:38 PM	59.870	1	673331072	07-29-2010	13:43:38	6:43:38 PM	2	2	1	2	94	Done.bmp	mission	156252	Get ready for the first game to start.	M1	Blocks	63	1	2900	1	65	63	63	.	shell.bmp	405462		0	0	disp	List3	1	-1	403960	5	1244	405204	shell	match@
PictureTask_List_A	2164	1	<?xml version="1.0"?>\n<Clock xmlns:dt="urn:schemas-microsoft-com:datatypes"><Description dt:dt="string">E-Prime Primary Realtime Clock</Description><StartTime><Timestamp dt:dt="int">0</Timestamp><DateUtc dt:dt="string">2010-07-29T18:43:38Z</DateUtc></StartTime><FrequencyChanges><FrequencyChange><Frequency dt:dt="r8">2793150000</Frequency><Timestamp dt:dt="r8">24335743742057</Timestamp><Current dt:dt="r8">0</Current><DateUtc dt:dt="string">2010-07-29T18:43:38Z</DateUtc></FrequencyChange></FrequencyChanges></Clock>\n	7/29/2010 1:43:38 PM	59.870	1	673331072	07-29-2010	13:43:38	6:43:38 PM	2	2	1	2	94	Done.bmp	mission	156252	Get ready for the first game to start.	M1	Blocks	64	0	1800	1	66	64	64	.	shell.bmp	409872		0	0	disp	List3	-7	7	408368	5	876	409244	shplm	con@
PictureTask_List_A	2164	1	<?xml version="1.0"?>\n<Clock xmlns:dt="urn:schemas-microsoft-com:datatypes"><Description dt:dt="string">E-Prime Primary Realtime Clock</Description><StartTime><Timestamp dt:dt="int">0</Timestamp><DateUtc dt:dt="string">2010-07-29T18:43:38Z</DateUtc></StartTime><FrequencyChanges><FrequencyChange><Frequency dt:dt="r8">2793150000</Frequency><Timestamp dt:dt="r8">24335743742057</Timestamp><Current dt:dt="r8">0</Current><DateUtc dt:dt="string">2010-07-29T18:43:38Z</DateUtc></FrequencyChange></FrequencyChanges></Clock>\n	7/29/2010 1:43:38 PM	59.870	1	673331072	07-29-2010	13:43:38	6:43:38 PM	2	2	1	2	94	Done.bmp	mission	156252	Get ready for the first game to start.	M1	Blocks	65	0	2700	1	67	65	65	.	shell.bmp	413162		0	0	disp	List3	1	-1	411660	5	792	412452	shule	psw@
PictureTask_List_A	2164	1	<?xml version="1.0"?>\n<Clock xmlns:dt="urn:schemas-microsoft-com:datatypes"><Description dt:dt="string">E-Prime Primary Realtime Clock</Description><StartTime><Timestamp dt:dt="int">0</Timestamp><DateUtc dt:dt="string">2010-07-29T18:43:38Z</DateUtc></StartTime><FrequencyChanges><FrequencyChange><Frequency dt:dt="r8">2793150000</Frequency><Timestamp dt:dt="r8">24335743742057</Timestamp><Current dt:dt="r8">0</Current><DateUtc dt:dt="string">2010-07-29T18:43:38Z</DateUtc></FrequencyChange></FrequencyChanges></Clock>\n	7/29/2010 1:43:38 PM	59.870	1	673331072	07-29-2010	13:43:38	6:43:38 PM	2	2	1	2	94	Done.bmp	mission	156252	Get ready for the first game to start.	M1	Blocks	66	0	3000	1	68	66	66	.	bkgd.bmp	417371		0	0	disp	List3	-7	7	415868		0	0		@
PictureTask_List_A	2164	1	<?xml version="1.0"?>\n<Clock xmlns:dt="urn:schemas-microsoft-com:datatypes"><Description dt:dt="string">E-Prime Primary Realtime Clock</Description><StartTime><Timestamp dt:dt="int">0</Timestamp><DateUtc dt:dt="string">2010-07-29T18:43:38Z</DateUtc></StartTime><FrequencyChanges><FrequencyChange><Frequency dt:dt="r8">2793150000</Frequency><Timestamp dt:dt="r8">24335743742057</Timestamp><Current dt:dt="r8">0</Current><DateUtc dt:dt="string">2010-07-29T18:43:38Z</DateUtc></FrequencyChange></FrequencyChanges></Clock>\n	7/29/2010 1:43:38 PM	59.870	1	673331072	07-29-2010	13:43:38	6:43:38 PM	2	2	1	2	94	Done.bmp	mission	156252	Get ready for the first game to start.	M1	Blocks	67	0	2200	1	69	67	67	.	shoe.bmp	421864		0	0	disp	List3	0	0	420361		0	0		@
PictureTask_List_A	2164	1	<?xml version="1.0"?>\n<Clock xmlns:dt="urn:schemas-microsoft-com:datatypes"><Description dt:dt="string">E-Prime Primary Realtime Clock</Description><StartTime><Timestamp dt:dt="int">0</Timestamp><DateUtc dt:dt="string">2010-07-29T18:43:38Z</DateUtc></StartTime><FrequencyChanges><FrequencyChange><Frequency dt:dt="r8">2793150000</Frequency><Timestamp dt:dt="r8">24335743742057</Timestamp><Current dt:dt="r8">0</Current><DateUtc dt:dt="string">2010-07-29T18:43:38Z</DateUtc></FrequencyChange></FrequencyChanges></Clock>\n	7/29/2010 1:43:38 PM	59.870	1	673331072	07-29-2010	13:43:38	6:43:38 PM	2	2	1	2	94	Done.bmp	mission	156252	Get ready for the first game to start.	M1	Blocks	68	0	2700	1	70	68	68	.	shoe.bmp	425572		0	0	disp	List3	-8	8	424069		0	0	shoy	psw@
PictureTask_List_A	2164	1	<?xml version="1.0"?>\n<Clock xmlns:dt="urn:schemas-microsoft-com:datatypes"><Description dt:dt="string">E-Prime Primary Realtime Clock</Description><StartTime><Timestamp dt:dt="int">0</Timestamp><DateUtc dt:dt="string">2010-07-29T18:43:38Z</DateUtc></StartTime><FrequencyChanges><FrequencyChange><Frequency dt:dt="r8">2793150000</Frequency><Timestamp dt:dt="r8">24335743742057</Timestamp><Current dt:dt="r8">0</Current><DateUtc dt:dt="string">2010-07-29T18:43:38Z</DateUtc></FrequencyChange></FrequencyChanges></Clock>\n	7/29/2010 1:43:38 PM	59.870	1	673331072	07-29-2010	13:43:38	6:43:38 PM	2	2	1	2	94	Done.bmp	mission	156252	Get ready for the first game to start.	M1	Blocks	69	0	1700	1	71	69	69	.	shoe.bmp	429765		0	0	disp	List3	-1	1	428262	5	670	428932	shjr	con@
PictureTask_List_A	2164	1	<?xml version="1.0"?>\n<Clock xmlns:dt="urn:schemas-microsoft-com:datatypes"><Description dt:dt="string">E-Prime Primary Realtime Clock</Description><StartTime><Timestamp dt:dt="int">0</Timestamp><DateUtc dt:dt="string">2010-07-29T18:43:38Z</DateUtc></StartTime><FrequencyChanges><FrequencyChange><Frequency dt:dt="r8">2793150000</Frequency><Timestamp dt:dt="r8">24335743742057</Timestamp><Current dt:dt="r8">0</Current><DateUtc dt:dt="string">2010-07-29T18:43:38Z</DateUtc></FrequencyChange></FrequencyChanges></Clock>\n	7/29/2010 1:43:38 PM	59.870	1	673331072	07-29-2010	13:43:38	6:43:38 PM	2	2	1	2	94	Done.bmp	mission	156252	Get ready for the first game to start.	M1	Blocks	70	0	2300	1	72	70	70	.	shoe.bmp	432972		0	0	disp	List3	-8	8	431469	5	1343	432812	show	wrd@
PictureTask_List_A	2164	1	<?xml version="1.0"?>\n<Clock xmlns:dt="urn:schemas-microsoft-com:datatypes"><Description dt:dt="string">E-Prime Primary Realtime Clock</Description><StartTime><Timestamp dt:dt="int">0</Timestamp><DateUtc dt:dt="string">2010-07-29T18:43:38Z</DateUtc></StartTime><FrequencyChanges><FrequencyChange><Frequency dt:dt="r8">2793150000</Frequency><Timestamp dt:dt="r8">24335743742057</Timestamp><Current dt:dt="r8">0</Current><DateUtc dt:dt="string">2010-07-29T18:43:38Z</DateUtc></FrequencyChange></FrequencyChanges></Clock>\n	7/29/2010 1:43:38 PM	59.870	1	673331072	07-29-2010	13:43:38	6:43:38 PM	2	2	1	2	94	Done.bmp	mission	156252	Get ready for the first game to start.	M1	Blocks	71	0	1700	1	73	71	71	.	shoe.bmp	436763		0	0	disp	List3	1	-1	435260	5	792	436052	shay	psw@
PictureTask_List_A	2164	1	<?xml version="1.0"?>\n<Clock xmlns:dt="urn:schemas-microsoft-com:datatypes"><Description dt:dt="string">E-Prime Primary Realtime Clock</Description><StartTime><Timestamp dt:dt="int">0</Timestamp><DateUtc dt:dt="string">2010-07-29T18:43:38Z</DateUtc></StartTime><FrequencyChanges><FrequencyChange><Frequency dt:dt="r8">2793150000</Frequency><Timestamp dt:dt="r8">24335743742057</Timestamp><Current dt:dt="r8">0</Current><DateUtc dt:dt="string">2010-07-29T18:43:38Z</DateUtc></FrequencyChange></FrequencyChanges></Clock>\n	7/29/2010 1:43:38 PM	59.870	1	673331072	07-29-2010	13:43:38	6:43:38 PM	2	2	1	2	94	Done.bmp	mission	156252	Get ready for the first game to start.	M1	Blocks	72	1	1900	1	74	72	72	.	shoe.bmp	439970		0	0	disp	List3	-6	6	438467	6	976	439443	shoe	match@
PictureTask_List_A	2164	1	<?xml version="1.0"?>\n<Clock xmlns:dt="urn:schemas-microsoft-com:datatypes"><Description dt:dt="string">E-Prime Primary Realtime Clock</Description><StartTime><Timestamp dt:dt="int">0</Timestamp><DateUtc dt:dt="string">2010-07-29T18:43:38Z</DateUtc></StartTime><FrequencyChanges><FrequencyChange><Frequency dt:dt="r8">2793150000</Frequency><Timestamp dt:dt="r8">24335743742057</Timestamp><Current dt:dt="r8">0</Current><DateUtc dt:dt="string">2010-07-29T18:43:38Z</DateUtc></FrequencyChange></FrequencyChanges></Clock>\n	7/29/2010 1:43:38 PM	59.870	1	673331072	07-29-2010	13:43:38	6:43:38 PM	2	2	1	2	94	Done.bmp	mission	156252	Get ready for the first game to start.	M1	Blocks	73	0	2400	1	75	73	73	.	shoe.bmp	443361		0	0	disp	List3	-13	13	441874	5	833	442707	shop	wrd@
PictureTask_List_A	2164	1	<?xml version="1.0"?>\n<Clock xmlns:dt="urn:schemas-microsoft-com:datatypes"><Description dt:dt="string">E-Prime Primary Realtime Clock</Description><StartTime><Timestamp dt:dt="int">0</Timestamp><DateUtc dt:dt="string">2010-07-29T18:43:38Z</DateUtc></StartTime><FrequencyChanges><FrequencyChange><Frequency dt:dt="r8">2793150000</Frequency><Timestamp dt:dt="r8">24335743742057</Timestamp><Current dt:dt="r8">0</Current><DateUtc dt:dt="string">2010-07-29T18:43:38Z</DateUtc></FrequencyChange></FrequencyChanges></Clock>\n	7/29/2010 1:43:38 PM	59.870	1	673331072	07-29-2010	13:43:38	6:43:38 PM	2	2	1	2	94	Done.bmp	mission	156252	Get ready for the first game to start.	M1	Blocks	74	0	1800	1	76	74	74	.	shoe.bmp	447269		0	0	disp	List3	-5	5	445766	5	677	446443	shfw	con@
PictureTask_List_A	2164	1	<?xml version="1.0"?>\n<Clock xmlns:dt="urn:schemas-microsoft-com:datatypes"><Description dt:dt="string">E-Prime Primary Realtime Clock</Description><StartTime><Timestamp dt:dt="int">0</Timestamp><DateUtc dt:dt="string">2010-07-29T18:43:38Z</DateUtc></StartTime><FrequencyChanges><FrequencyChange><Frequency dt:dt="r8">2793150000</Frequency><Timestamp dt:dt="r8">24335743742057</Timestamp><Current dt:dt="r8">0</Current><DateUtc dt:dt="string">2010-07-29T18:43:38Z</DateUtc></FrequencyChange></FrequencyChanges></Clock>\n	7/29/2010 1:43:38 PM	59.870	1	673331072	07-29-2010	13:43:38	6:43:38 PM	2	2	1	2	94	Done.bmp	mission	156252	Get ready for the first game to start.	M1	Blocks	75	0	3400	1	77	75	75	.	bkgd.bmp	450560		0	0	disp	List3	-12	12	449073		0	0		@
PictureTask_List_A	2164	1	<?xml version="1.0"?>\n<Clock xmlns:dt="urn:schemas-microsoft-com:datatypes"><Description dt:dt="string">E-Prime Primary Realtime Clock</Description><StartTime><Timestamp dt:dt="int">0</Timestamp><DateUtc dt:dt="string">2010-07-29T18:43:38Z</DateUtc></StartTime><FrequencyChanges><FrequencyChange><Frequency dt:dt="r8">2793150000</Frequency><Timestamp dt:dt="r8">24335743742057</Timestamp><Current dt:dt="r8">0</Current><DateUtc dt:dt="string">2010-07-29T18:43:38Z</DateUtc></FrequencyChange></FrequencyChanges></Clock>\n	7/29/2010 1:43:38 PM	59.870	1	673331072	07-29-2010	13:43:38	6:43:38 PM	2	2	1	2	94	Done.bmp	mission	156252	Get ready for the first game to start.	M1	Blocks	76	0	1900	1	78	76	76	.	car.bmp	455471		0	0	disp	List3	-6	6	453967		0	0		@
PictureTask_List_A	2164	1	<?xml version="1.0"?>\n<Clock xmlns:dt="urn:schemas-microsoft-com:datatypes"><Description dt:dt="string">E-Prime Primary Realtime Clock</Description><StartTime><Timestamp dt:dt="int">0</Timestamp><DateUtc dt:dt="string">2010-07-29T18:43:38Z</DateUtc></StartTime><FrequencyChanges><FrequencyChange><Frequency dt:dt="r8">2793150000</Frequency><Timestamp dt:dt="r8">24335743742057</Timestamp><Current dt:dt="r8">0</Current><DateUtc dt:dt="string">2010-07-29T18:43:38Z</DateUtc></FrequencyChange></FrequencyChanges></Clock>\n	7/29/2010 1:43:38 PM	59.870	1	673331072	07-29-2010	13:43:38	6:43:38 PM	2	2	1	2	94	Done.bmp	mission	156252	Get ready for the first game to start.	M1	Blocks	77	0	1600	1	79	77	77	.	car.bmp	458861		0	0	disp	List3	-14	14	457375	5	1052	458427	cas	psw@
PictureTask_List_A	2164	1	<?xml version="1.0"?>\n<Clock xmlns:dt="urn:schemas-microsoft-com:datatypes"><Description dt:dt="string">E-Prime Primary Realtime Clock</Description><StartTime><Timestamp dt:dt="int">0</Timestamp><DateUtc dt:dt="string">2010-07-29T18:43:38Z</DateUtc></StartTime><FrequencyChanges><FrequencyChange><Frequency dt:dt="r8">2793150000</Frequency><Timestamp dt:dt="r8">24335743742057</Timestamp><Current dt:dt="r8">0</Current><DateUtc dt:dt="string">2010-07-29T18:43:38Z</DateUtc></FrequencyChange></FrequencyChanges></Clock>\n	7/29/2010 1:43:38 PM	59.870	1	673331072	07-29-2010	13:43:38	6:43:38 PM	2	2	1	2	94	Done.bmp	mission	156252	Get ready for the first game to start.	M1	Blocks	78	0	2200	1	80	78	78	.	car.bmp	461968		0	0	disp	List3	-4	4	460465	5	1106	461571	cjr	con@
PictureTask_List_A	2164	1	<?xml version="1.0"?>\n<Clock xmlns:dt="urn:schemas-microsoft-com:datatypes"><Description dt:dt="string">E-Prime Primary Realtime Clock</Description><StartTime><Timestamp dt:dt="int">0</Timestamp><DateUtc dt:dt="string">2010-07-29T18:43:38Z</DateUtc></StartTime><FrequencyChanges><FrequencyChange><Frequency dt:dt="r8">2793150000</Frequency><Timestamp dt:dt="r8">24335743742057</Timestamp><Current dt:dt="r8">0</Current><DateUtc dt:dt="string">2010-07-29T18:43:38Z</DateUtc></FrequencyChange></FrequencyChanges></Clock>\n	7/29/2010 1:43:38 PM	59.870	1	673331072	07-29-2010	13:43:38	6:43:38 PM	2	2	1	2	94	Done.bmp	mission	156252	Get ready for the first game to start.	M1	Blocks	79	0	2100	1	81	79	79	.	car.bmp	465660		0	0	disp	List3	-12	12	464173	5	1478	465651	cat	wrd@
PictureTask_List_A	2164	1	<?xml version="1.0"?>\n<Clock xmlns:dt="urn:schemas-microsoft-com:datatypes"><Description dt:dt="string">E-Prime Primary Realtime Clock</Description><StartTime><Timestamp dt:dt="int">0</Timestamp><DateUtc dt:dt="string">2010-07-29T18:43:38Z</DateUtc></StartTime><FrequencyChanges><FrequencyChange><Frequency dt:dt="r8">2793150000</Frequency><Timestamp dt:dt="r8">24335743742057</Timestamp><Current dt:dt="r8">0</Current><DateUtc dt:dt="string">2010-07-29T18:43:38Z</DateUtc></FrequencyChange></FrequencyChanges></Clock>\n	7/29/2010 1:43:38 PM	59.870	1	673331072	07-29-2010	13:43:38	6:43:38 PM	2	2	1	2	94	Done.bmp	mission	156252	Get ready for the first game to start.	M1	Blocks	80	1	1500	1	82	80	80	.	car.bmp	469267		0	0	disp	List3	-3	3	467764		0	0	car	match@
PictureTask_List_A	2164	1	<?xml version="1.0"?>\n<Clock xmlns:dt="urn:schemas-microsoft-com:datatypes"><Description dt:dt="string">E-Prime Primary Realtime Clock</Description><StartTime><Timestamp dt:dt="int">0</Timestamp><DateUtc dt:dt="string">2010-07-29T18:43:38Z</DateUtc></StartTime><FrequencyChanges><FrequencyChange><Frequency dt:dt="r8">2793150000</Frequency><Timestamp dt:dt="r8">24335743742057</Timestamp><Current dt:dt="r8">0</Current><DateUtc dt:dt="string">2010-07-29T18:43:38Z</DateUtc></FrequencyChange></FrequencyChanges></Clock>\n	7/29/2010 1:43:38 PM	59.870	1	673331072	07-29-2010	13:43:38	6:43:38 PM	2	2	1	2	94	Done.bmp	mission	156252	Get ready for the first game to start.	M1	Blocks	81	0	1500	1	83	81	81	.	car.bmp	472274		0	0	disp	List3	-10	10	470771	5	560	471331	cap	wrd@
PictureTask_List_A	2164	1	<?xml version="1.0"?>\n<Clock xmlns:dt="urn:schemas-microsoft-com:datatypes"><Description dt:dt="string">E-Prime Primary Realtime Clock</Description><StartTime><Timestamp dt:dt="int">0</Timestamp><DateUtc dt:dt="string">2010-07-29T18:43:38Z</DateUtc></StartTime><FrequencyChanges><FrequencyChange><Frequency dt:dt="r8">2793150000</Frequency><Timestamp dt:dt="r8">24335743742057</Timestamp><Current dt:dt="r8">0</Current><DateUtc dt:dt="string">2010-07-29T18:43:38Z</DateUtc></FrequencyChange></FrequencyChanges></Clock>\n	7/29/2010 1:43:38 PM	59.870	1	673331072	07-29-2010	13:43:38	6:43:38 PM	2	2	1	2	94	Done.bmp	mission	156252	Get ready for the first game to start.	M1	Blocks	82	1	1500	1	84	82	82	.	car.bmp	475264		0	0	disp	List3	1	-1	473760	5	443	474203	car	match@
PictureTask_List_A	2164	1	<?xml version="1.0"?>\n<Clock xmlns:dt="urn:schemas-microsoft-com:datatypes"><Description dt:dt="string">E-Prime Primary Realtime Clock</Description><StartTime><Timestamp dt:dt="int">0</Timestamp><DateUtc dt:dt="string">2010-07-29T18:43:38Z</DateUtc></StartTime><FrequencyChanges><FrequencyChange><Frequency dt:dt="r8">2793150000</Frequency><Timestamp dt:dt="r8">24335743742057</Timestamp><Current dt:dt="r8">0</Current><DateUtc dt:dt="string">2010-07-29T18:43:38Z</DateUtc></FrequencyChange></FrequencyChanges></Clock>\n	7/29/2010 1:43:38 PM	59.870	1	673331072	07-29-2010	13:43:38	6:43:38 PM	2	2	1	2	94	Done.bmp	mission	156252	Get ready for the first game to start.	M1	Blocks	83	0	1800	1	85	83	83	.	car.bmp	478270		0	0	disp	List3	-6	6	476767	5	988	477755	cal	psw@
PictureTask_List_A	2164	1	<?xml version="1.0"?>\n<Clock xmlns:dt="urn:schemas-microsoft-com:datatypes"><Description dt:dt="string">E-Prime Primary Realtime Clock</Description><StartTime><Timestamp dt:dt="int">0</Timestamp><DateUtc dt:dt="string">2010-07-29T18:43:38Z</DateUtc></StartTime><FrequencyChanges><FrequencyChange><Frequency dt:dt="r8">2793150000</Frequency><Timestamp dt:dt="r8">24335743742057</Timestamp><Current dt:dt="r8">0</Current><DateUtc dt:dt="string">2010-07-29T18:43:38Z</DateUtc></FrequencyChange></FrequencyChanges></Clock>\n	7/29/2010 1:43:38 PM	59.870	1	673331072	07-29-2010	13:43:38	6:43:38 PM	2	2	1	2	94	Done.bmp	mission	156252	Get ready for the first game to start.	M1	Blocks	84	0	2500	1	86	84	84	.	car.bmp	481561		0	0	disp	List3	-13	13	480074	6	177	480251	ckd	con@
PictureTask_List_A	2164	1	<?xml version="1.0"?>\n<Clock xmlns:dt="urn:schemas-microsoft-com:datatypes"><Description dt:dt="string">E-Prime Primary Realtime Clock</Description><StartTime><Timestamp dt:dt="int">0</Timestamp><DateUtc dt:dt="string">2010-07-29T18:43:38Z</DateUtc></StartTime><FrequencyChanges><FrequencyChange><Frequency dt:dt="r8">2793150000</Frequency><Timestamp dt:dt="r8">24335743742057</Timestamp><Current dt:dt="r8">0</Current><DateUtc dt:dt="string">2010-07-29T18:43:38Z</DateUtc></FrequencyChange></FrequencyChanges></Clock>\n	7/29/2010 1:43:38 PM	59.870	1	673331072	07-29-2010	13:43:38	6:43:38 PM	2	2	1	2	94	Done.bmp	mission	156252	Get ready for the first game to start.	M1	Blocks	85	0	3100	1	87	85	85	.	bkgd.bmp	485569		0	0	disp	List3	-5	5	484066		0	0		@
PictureTask_List_A	2164	1	<?xml version="1.0"?>\n<Clock xmlns:dt="urn:schemas-microsoft-com:datatypes"><Description dt:dt="string">E-Prime Primary Realtime Clock</Description><StartTime><Timestamp dt:dt="int">0</Timestamp><DateUtc dt:dt="string">2010-07-29T18:43:38Z</DateUtc></StartTime><FrequencyChanges><FrequencyChange><Frequency dt:dt="r8">2793150000</Frequency><Timestamp dt:dt="r8">24335743742057</Timestamp><Current dt:dt="r8">0</Current><DateUtc dt:dt="string">2010-07-29T18:43:38Z</DateUtc></FrequencyChange></FrequencyChanges></Clock>\n	7/29/2010 1:43:38 PM	59.870	1	673331072	07-29-2010	13:43:38	6:43:38 PM	2	2	1	2	94	Done.bmp	mission	156252	Get ready for the first game to start.	M1	Blocks	86	0	2200	1	88	86	86	.	lock.bmp	490163		0	0	disp	List3	1	-1	488660		0	0		@
PictureTask_List_A	2164	1	<?xml version="1.0"?>\n<Clock xmlns:dt="urn:schemas-microsoft-com:datatypes"><Description dt:dt="string">E-Prime Primary Realtime Clock</Description><StartTime><Timestamp dt:dt="int">0</Timestamp><DateUtc dt:dt="string">2010-07-29T18:43:38Z</DateUtc></StartTime><FrequencyChanges><FrequencyChange><Frequency dt:dt="r8">2793150000</Frequency><Timestamp dt:dt="r8">24335743742057</Timestamp><Current dt:dt="r8">0</Current><DateUtc dt:dt="string">2010-07-29T18:43:38Z</DateUtc></FrequencyChange></FrequencyChanges></Clock>\n	7/29/2010 1:43:38 PM	59.870	1	673331072	07-29-2010	13:43:38	6:43:38 PM	2	2	1	2	94	Done.bmp	mission	156252	Get ready for the first game to start.	M1	Blocks	87	0	1800	1	89	87	87	.	lock.bmp	493871		0	0	disp	List3	-6	6	492367	5	787	493154	lort	psw@
PictureTask_List_A	2164	1	<?xml version="1.0"?>\n<Clock xmlns:dt="urn:schemas-microsoft-com:datatypes"><Description dt:dt="string">E-Prime Primary Realtime Clock</Description><StartTime><Timestamp dt:dt="int">0</Timestamp><DateUtc dt:dt="string">2010-07-29T18:43:38Z</DateUtc></StartTime><FrequencyChanges><FrequencyChange><Frequency dt:dt="r8">2793150000</Frequency><Timestamp dt:dt="r8">24335743742057</Timestamp><Current dt:dt="r8">0</Current><DateUtc dt:dt="string">2010-07-29T18:43:38Z</DateUtc></FrequencyChange></FrequencyChanges></Clock>\n	7/29/2010 1:43:38 PM	59.870	1	673331072	07-29-2010	13:43:38	6:43:38 PM	2	2	1	2	94	Done.bmp	mission	156252	Get ready for the first game to start.	M1	Blocks	88	0	1900	1	90	88	88	.	lock.bmp	497161		0	0	disp	List3	-14	14	495675	5	727	496402	loke	psw@
PictureTask_List_A	2164	1	<?xml version="1.0"?>\n<Clock xmlns:dt="urn:schemas-microsoft-com:datatypes"><Description dt:dt="string">E-Prime Primary Realtime Clock</Description><StartTime><Timestamp dt:dt="int">0</Timestamp><DateUtc dt:dt="string">2010-07-29T18:43:38Z</DateUtc></StartTime><FrequencyChanges><FrequencyChange><Frequency dt:dt="r8">2793150000</Frequency><Timestamp dt:dt="r8">24335743742057</Timestamp><Current dt:dt="r8">0</Current><DateUtc dt:dt="string">2010-07-29T18:43:38Z</DateUtc></FrequencyChange></FrequencyChanges></Clock>\n	7/29/2010 1:43:38 PM	59.870	1	673331072	07-29-2010	13:43:38	6:43:38 PM	2	2	1	2	94	Done.bmp	mission	156252	Get ready for the first game to start.	M1	Blocks	89	1	2000	1	91	89	89	.	lock.bmp	500568		0	0	disp	List3	-4	4	499065	6	953	500018	lock	match@
PictureTask_List_A	2164	1	<?xml version="1.0"?>\n<Clock xmlns:dt="urn:schemas-microsoft-com:datatypes"><Description dt:dt="string">E-Prime Primary Realtime Clock</Description><StartTime><Timestamp dt:dt="int">0</Timestamp><DateUtc dt:dt="string">2010-07-29T18:43:38Z</DateUtc></StartTime><FrequencyChanges><FrequencyChange><Frequency dt:dt="r8">2793150000</Frequency><Timestamp dt:dt="r8">24335743742057</Timestamp><Current dt:dt="r8">0</Current><DateUtc dt:dt="string">2010-07-29T18:43:38Z</DateUtc></FrequencyChange></FrequencyChanges></Clock>\n	7/29/2010 1:43:38 PM	59.870	1	673331072	07-29-2010	13:43:38	6:43:38 PM	2	2	1	2	94	Done.bmp	mission	156252	Get ready for the first game to start.	M1	Blocks	90	0	2400	1	92	90	90	.	lock.bmp	504060		0	0	disp	List3	-12	12	502573	5	829	503402	long	wrd@
PictureTask_List_A	2164	1	<?xml version="1.0"?>\n<Clock xmlns:dt="urn:schemas-microsoft-com:datatypes"><Description dt:dt="string">E-Prime Primary Realtime Clock</Description><StartTime><Timestamp dt:dt="int">0</Timestamp><DateUtc dt:dt="string">2010-07-29T18:43:38Z</DateUtc></StartTime><FrequencyChanges><FrequencyChange><Frequency dt:dt="r8">2793150000</Frequency><Timestamp dt:dt="r8">24335743742057</Timestamp><Current dt:dt="r8">0</Current><DateUtc dt:dt="string">2010-07-29T18:43:38Z</DateUtc></FrequencyChange></FrequencyChanges></Clock>\n	7/29/2010 1:43:38 PM	59.870	1	673331072	07-29-2010	13:43:38	6:43:38 PM	2	2	1	2	94	Done.bmp	mission	156252	Get ready for the first game to start.	M1	Blocks	91	0	2700	1	93	91	91	.	lock.bmp	507968		0	0	disp	List3	-4	4	506465	5	1465	507930	lost	wrd@
PictureTask_List_A	2164	1	<?xml version="1.0"?>\n<Clock xmlns:dt="urn:schemas-microsoft-com:datatypes"><Description dt:dt="string">E-Prime Primary Realtime Clock</Description><StartTime><Timestamp dt:dt="int">0</Timestamp><DateUtc dt:dt="string">2010-07-29T18:43:38Z</DateUtc></StartTime><FrequencyChanges><FrequencyChange><Frequency dt:dt="r8">2793150000</Frequency><Timestamp dt:dt="r8">24335743742057</Timestamp><Current dt:dt="r8">0</Current><DateUtc dt:dt="string">2010-07-29T18:43:38Z</DateUtc></FrequencyChange></FrequencyChanges></Clock>\n	7/29/2010 1:43:38 PM	59.870	1	673331072	07-29-2010	13:43:38	6:43:38 PM	2	2	1	2	94	Done.bmp	mission	156252	Get ready for the first game to start.	M1	Blocks	92	0	2500	1	94	92	92	.	lock.bmp	512160		0	0	disp	List3	-13	13	510674	5	840	511514	lhdk	con@
PictureTask_List_A	2164	1	<?xml version="1.0"?>\n<Clock xmlns:dt="urn:schemas-microsoft-com:datatypes"><Description dt:dt="string">E-Prime Primary Realtime Clock</Description><StartTime><Timestamp dt:dt="int">0</Timestamp><DateUtc dt:dt="string">2010-07-29T18:43:38Z</DateUtc></StartTime><FrequencyChanges><FrequencyChange><Frequency dt:dt="r8">2793150000</Frequency><Timestamp dt:dt="r8">24335743742057</Timestamp><Current dt:dt="r8">0</Current><DateUtc dt:dt="string">2010-07-29T18:43:38Z</DateUtc></FrequencyChange></FrequencyChanges></Clock>\n	7/29/2010 1:43:38 PM	59.870	1	673331072	07-29-2010	13:43:38	6:43:38 PM	2	2	1	2	94	Done.bmp	mission	156252	Get ready for the first game to start.	M1	Blocks	93	1	2200	1	95	93	93	.	lock.bmp	516169		0	0	disp	List3	-5	5	514666	6	864	515530	lock	match@
PictureTask_List_A	2164	1	<?xml version="1.0"?>\n<Clock xmlns:dt="urn:schemas-microsoft-com:datatypes"><Description dt:dt="string">E-Prime Primary Realtime Clock</Description><StartTime><Timestamp dt:dt="int">0</Timestamp><DateUtc dt:dt="string">2010-07-29T18:43:38Z</DateUtc></StartTime><FrequencyChanges><FrequencyChange><Frequency dt:dt="r8">2793150000</Frequency><Timestamp dt:dt="r8">24335743742057</Timestamp><Current dt:dt="r8">0</Current><DateUtc dt:dt="string">2010-07-29T18:43:38Z</DateUtc></FrequencyChange></FrequencyChanges></Clock>\n	7/29/2010 1:43:38 PM	59.870	1	673331072	07-29-2010	13:43:38	6:43:38 PM	2	2	1	2	94	Done.bmp	mission	156252	Get ready for the first game to start.	M1	Blocks	94	0	1500	1	96	94	94	.	lock.bmp	519860		0	0	disp	List3	-13	13	518374	5	1276	519650	lncf	con@
PictureTask_List_A	2164	1	<?xml version="1.0"?>\n<Clock xmlns:dt="urn:schemas-microsoft-com:datatypes"><Description dt:dt="string">E-Prime Primary Realtime Clock</Description><StartTime><Timestamp dt:dt="int">0</Timestamp><DateUtc dt:dt="string">2010-07-29T18:43:38Z</DateUtc></StartTime><FrequencyChanges><FrequencyChange><Frequency dt:dt="r8">2793150000</Frequency><Timestamp dt:dt="r8">24335743742057</Timestamp><Current dt:dt="r8">0</Current><DateUtc dt:dt="string">2010-07-29T18:43:38Z</DateUtc></FrequencyChange></FrequencyChanges></Clock>\n	7/29/2010 1:43:38 PM	59.870	1	673331072	07-29-2010	13:43:38	6:43:38 PM	3	3	1	3	94	Done.bmp	mission	567956	Get ready for the next game to start.	M2	Blocks	1	0	2500	1	98	95	.	1	bag.bmp	585002		0	0	disp	List3	-26	26	583515		0	0		@
PictureTask_List_A	2164	1	<?xml version="1.0"?>\n<Clock xmlns:dt="urn:schemas-microsoft-com:datatypes"><Description dt:dt="string">E-Prime Primary Realtime Clock</Description><StartTime><Timestamp dt:dt="int">0</Timestamp><DateUtc dt:dt="string">2010-07-29T18:43:38Z</DateUtc></StartTime><FrequencyChanges><FrequencyChange><Frequency dt:dt="r8">2793150000</Frequency><Timestamp dt:dt="r8">24335743742057</Timestamp><Current dt:dt="r8">0</Current><DateUtc dt:dt="string">2010-07-29T18:43:38Z</DateUtc></FrequencyChange></FrequencyChanges></Clock>\n	7/29/2010 1:43:38 PM	59.870	1	673331072	07-29-2010	13:43:38	6:43:38 PM	3	3	1	3	94	Done.bmp	mission	567956	Get ready for the next game to start.	M2	Blocks	2	0	3000	1	99	96	.	2	bag.bmp	588994		0	0	disp	List3	-1	1	587490	5	1238	588728	bug	wrd@
PictureTask_List_A	2164	1	<?xml version="1.0"?>\n<Clock xmlns:dt="urn:schemas-microsoft-com:datatypes"><Description dt:dt="string">E-Prime Primary Realtime Clock</Description><StartTime><Timestamp dt:dt="int">0</Timestamp><DateUtc dt:dt="string">2010-07-29T18:43:38Z</DateUtc></StartTime><FrequencyChanges><FrequencyChange><Frequency dt:dt="r8">2793150000</Frequency><Timestamp dt:dt="r8">24335743742057</Timestamp><Current dt:dt="r8">0</Current><DateUtc dt:dt="string">2010-07-29T18:43:38Z</DateUtc></FrequencyChange></FrequencyChanges></Clock>\n	7/29/2010 1:43:38 PM	59.870	1	673331072	07-29-2010	13:43:38	6:43:38 PM	3	3	1	3	94	Done.bmp	mission	567956	Get ready for the next game to start.	M2	Blocks	3	0	1500	1	100	97	.	3	bag.bmp	593488		0	0	disp	List3	-11	11	592000	5	712	592712	bpg	con@
PictureTask_List_A	2164	1	<?xml version="1.0"?>\n<Clock xmlns:dt="urn:schemas-microsoft-com:datatypes"><Description dt:dt="string">E-Prime Primary Realtime Clock</Description><StartTime><Timestamp dt:dt="int">0</Timestamp><DateUtc dt:dt="string">2010-07-29T18:43:38Z</DateUtc></StartTime><FrequencyChanges><FrequencyChange><Frequency dt:dt="r8">2793150000</Frequency><Timestamp dt:dt="r8">24335743742057</Timestamp><Current dt:dt="r8">0</Current><DateUtc dt:dt="string">2010-07-29T18:43:38Z</DateUtc></FrequencyChange></FrequencyChanges></Clock>\n	7/29/2010 1:43:38 PM	59.870	1	673331072	07-29-2010	13:43:38	6:43:38 PM	3	3	1	3	94	Done.bmp	mission	567956	Get ready for the next game to start.	M2	Blocks	4	0	1900	1	101	98	.	4	bag.bmp	596493		0	0	disp	List3	-1	1	594990	5	858	595848	bap	psw@
PictureTask_List_A	2164	1	<?xml version="1.0"?>\n<Clock xmlns:dt="urn:schemas-microsoft-com:datatypes"><Description dt:dt="string">E-Prime Primary Realtime Clock</Description><StartTime><Timestamp dt:dt="int">0</Timestamp><DateUtc dt:dt="string">2010-07-29T18:43:38Z</DateUtc></StartTime><FrequencyChanges><FrequencyChange><Frequency dt:dt="r8">2793150000</Frequency><Timestamp dt:dt="r8">24335743742057</Timestamp><Current dt:dt="r8">0</Current><DateUtc dt:dt="string">2010-07-29T18:43:38Z</DateUtc></FrequencyChange></FrequencyChanges></Clock>\n	7/29/2010 1:43:38 PM	59.870	1	673331072	07-29-2010	13:43:38	6:43:38 PM	3	3	1	3	94	Done.bmp	mission	567956	Get ready for the next game to start.	M2	Blocks	5	0	1600	1	102	99	.	5	bag.bmp	599901		0	0	disp	List3	-8	8	598397	5	995	599392	bad	wrd@
PictureTask_List_A	2164	1	<?xml version="1.0"?>\n<Clock xmlns:dt="urn:schemas-microsoft-com:datatypes"><Description dt:dt="string">E-Prime Primary Realtime Clock</Description><StartTime><Timestamp dt:dt="int">0</Timestamp><DateUtc dt:dt="string">2010-07-29T18:43:38Z</DateUtc></StartTime><FrequencyChanges><FrequencyChange><Frequency dt:dt="r8">2793150000</Frequency><Timestamp dt:dt="r8">24335743742057</Timestamp><Current dt:dt="r8">0</Current><DateUtc dt:dt="string">2010-07-29T18:43:38Z</DateUtc></FrequencyChange></FrequencyChanges></Clock>\n	7/29/2010 1:43:38 PM	59.870	1	673331072	07-29-2010	13:43:38	6:43:38 PM	3	3	1	3	94	Done.bmp	mission	567956	Get ready for the next game to start.	M2	Blocks	6	0	2500	1	103	100	.	6	bag.bmp	602991		0	0	disp	List3	1	-1	601488	5	856	602344	bsj	con@
PictureTask_List_A	2164	1	<?xml version="1.0"?>\n<Clock xmlns:dt="urn:schemas-microsoft-com:datatypes"><Description dt:dt="string">E-Prime Primary Realtime Clock</Description><StartTime><Timestamp dt:dt="int">0</Timestamp><DateUtc dt:dt="string">2010-07-29T18:43:38Z</DateUtc></StartTime><FrequencyChanges><FrequencyChange><Frequency dt:dt="r8">2793150000</Frequency><Timestamp dt:dt="r8">24335743742057</Timestamp><Current dt:dt="r8">0</Current><DateUtc dt:dt="string">2010-07-29T18:43:38Z</DateUtc></FrequencyChange></FrequencyChanges></Clock>\n	7/29/2010 1:43:38 PM	59.870	1	673331072	07-29-2010	13:43:38	6:43:38 PM	3	3	1	3	94	Done.bmp	mission	567956	Get ready for the next game to start.	M2	Blocks	7	0	2700	1	104	101	.	7	bag.bmp	606999		0	0	disp	List3	-7	7	605496	5	736	606232	bab	psw@
PictureTask_List_A	2164	1	<?xml version="1.0"?>\n<Clock xmlns:dt="urn:schemas-microsoft-com:datatypes"><Description dt:dt="string">E-Prime Primary Realtime Clock</Description><StartTime><Timestamp dt:dt="int">0</Timestamp><DateUtc dt:dt="string">2010-07-29T18:43:38Z</DateUtc></StartTime><FrequencyChanges><FrequencyChange><Frequency dt:dt="r8">2793150000</Frequency><Timestamp dt:dt="r8">24335743742057</Timestamp><Current dt:dt="r8">0</Current><DateUtc dt:dt="string">2010-07-29T18:43:38Z</DateUtc></FrequencyChange></FrequencyChanges></Clock>\n	7/29/2010 1:43:38 PM	59.870	1	673331072	07-29-2010	13:43:38	6:43:38 PM	3	3	1	3	94	Done.bmp	mission	567956	Get ready for the next game to start.	M2	Blocks	8	1	2000	1	105	102	.	8	bag.bmp	611192		0	0	disp	List3	0	0	609689	6	1295	610984	bag	match@
PictureTask_List_A	2164	1	<?xml version="1.0"?>\n<Clock xmlns:dt="urn:schemas-microsoft-com:datatypes"><Description dt:dt="string">E-Prime Primary Realtime Clock</Description><StartTime><Timestamp dt:dt="int">0</Timestamp><DateUtc dt:dt="string">2010-07-29T18:43:38Z</DateUtc></StartTime><FrequencyChanges><FrequencyChange><Frequency dt:dt="r8">2793150000</Frequency><Timestamp dt:dt="r8">24335743742057</Timestamp><Current dt:dt="r8">0</Current><DateUtc dt:dt="string">2010-07-29T18:43:38Z</DateUtc></FrequencyChange></FrequencyChanges></Clock>\n	7/29/2010 1:43:38 PM	59.870	1	673331072	07-29-2010	13:43:38	6:43:38 PM	3	3	1	3	94	Done.bmp	mission	567956	Get ready for the next game to start.	M2	Blocks	9	0	3300	1	106	103	.	9	bkgd.bmp	614699		0	0	disp	List3	-7	7	613196		0	0		@
PictureTask_List_A	2164	1	<?xml version="1.0"?>\n<Clock xmlns:dt="urn:schemas-microsoft-com:datatypes"><Description dt:dt="string">E-Prime Primary Realtime Clock</Description><StartTime><Timestamp dt:dt="int">0</Timestamp><DateUtc dt:dt="string">2010-07-29T18:43:38Z</DateUtc></StartTime><FrequencyChanges><FrequencyChange><Frequency dt:dt="r8">2793150000</Frequency><Timestamp dt:dt="r8">24335743742057</Timestamp><Current dt:dt="r8">0</Current><DateUtc dt:dt="string">2010-07-29T18:43:38Z</DateUtc></FrequencyChange></FrequencyChanges></Clock>\n	7/29/2010 1:43:38 PM	59.870	1	673331072	07-29-2010	13:43:38	6:43:38 PM	3	3	1	3	94	Done.bmp	mission	567956	Get ready for the next game to start.	M2	Blocks	10	0	1800	1	107	104	.	10	fire.bmp	619493		0	0	disp	List3	-1	1	617990		0	0		@
PictureTask_List_A	2164	1	<?xml version="1.0"?>\n<Clock xmlns:dt="urn:schemas-microsoft-com:datatypes"><Description dt:dt="string">E-Prime Primary Realtime Clock</Description><StartTime><Timestamp dt:dt="int">0</Timestamp><DateUtc dt:dt="string">2010-07-29T18:43:38Z</DateUtc></StartTime><FrequencyChanges><FrequencyChange><Frequency dt:dt="r8">2793150000</Frequency><Timestamp dt:dt="r8">24335743742057</Timestamp><Current dt:dt="r8">0</Current><DateUtc dt:dt="string">2010-07-29T18:43:38Z</DateUtc></FrequencyChange></FrequencyChanges></Clock>\n	7/29/2010 1:43:38 PM	59.870	1	673331072	07-29-2010	13:43:38	6:43:38 PM	3	3	1	3	94	Done.bmp	mission	567956	Get ready for the next game to start.	M2	Blocks	11	1	2600	1	108	105	.	11	fire.bmp	622800		0	0	disp	List3	-8	8	621297	6	1063	622360	fire	match@
PictureTask_List_A	2164	1	<?xml version="1.0"?>\n<Clock xmlns:dt="urn:schemas-microsoft-com:datatypes"><Description dt:dt="string">E-Prime Primary Realtime Clock</Description><StartTime><Timestamp dt:dt="int">0</Timestamp><DateUtc dt:dt="string">2010-07-29T18:43:38Z</DateUtc></StartTime><FrequencyChanges><FrequencyChange><Frequency dt:dt="r8">2793150000</Frequency><Timestamp dt:dt="r8">24335743742057</Timestamp><Current dt:dt="r8">0</Current><DateUtc dt:dt="string">2010-07-29T18:43:38Z</DateUtc></FrequencyChange></FrequencyChanges></Clock>\n	7/29/2010 1:43:38 PM	59.870	1	673331072	07-29-2010	13:43:38	6:43:38 PM	3	3	1	3	94	Done.bmp	mission	567956	Get ready for the next game to start.	M2	Blocks	12	0	1900	1	109	106	.	12	fire.bmp	626893		0	0	disp	List3	0	0	625389	5	811	626200	ftpg	con@
PictureTask_List_A	2164	1	<?xml version="1.0"?>\n<Clock xmlns:dt="urn:schemas-microsoft-com:datatypes"><Description dt:dt="string">E-Prime Primary Realtime Clock</Description><StartTime><Timestamp dt:dt="int">0</Timestamp><DateUtc dt:dt="string">2010-07-29T18:43:38Z</DateUtc></StartTime><FrequencyChanges><FrequencyChange><Frequency dt:dt="r8">2793150000</Frequency><Timestamp dt:dt="r8">24335743742057</Timestamp><Current dt:dt="r8">0</Current><DateUtc dt:dt="string">2010-07-29T18:43:38Z</DateUtc></FrequencyChange></FrequencyChanges></Clock>\n	7/29/2010 1:43:38 PM	59.870	1	673331072	07-29-2010	13:43:38	6:43:38 PM	3	3	1	3	94	Done.bmp	mission	567956	Get ready for the next game to start.	M2	Blocks	13	0	1800	1	110	107	.	13	fire.bmp	630300		0	0	disp	List3	-8	8	628797	5	778	629575	file	wrd@
PictureTask_List_A	2164	1	<?xml version="1.0"?>\n<Clock xmlns:dt="urn:schemas-microsoft-com:datatypes"><Description dt:dt="string">E-Prime Primary Realtime Clock</Description><StartTime><Timestamp dt:dt="int">0</Timestamp><DateUtc dt:dt="string">2010-07-29T18:43:38Z</DateUtc></StartTime><FrequencyChanges><FrequencyChange><Frequency dt:dt="r8">2793150000</Frequency><Timestamp dt:dt="r8">24335743742057</Timestamp><Current dt:dt="r8">0</Current><DateUtc dt:dt="string">2010-07-29T18:43:38Z</DateUtc></FrequencyChange></FrequencyChanges></Clock>\n	7/29/2010 1:43:38 PM	59.870	1	673331072	07-29-2010	13:43:38	6:43:38 PM	3	3	1	3	94	Done.bmp	mission	567956	Get ready for the next game to start.	M2	Blocks	14	0	1500	1	111	108	.	14	fire.bmp	633590		0	0	disp	List3	1	-1	632088	5	783	632871	five	wrd@
PictureTask_List_A	2164	1	<?xml version="1.0"?>\n<Clock xmlns:dt="urn:schemas-microsoft-com:datatypes"><Description dt:dt="string">E-Prime Primary Realtime Clock</Description><StartTime><Timestamp dt:dt="int">0</Timestamp><DateUtc dt:dt="string">2010-07-29T18:43:38Z</DateUtc></StartTime><FrequencyChanges><FrequencyChange><Frequency dt:dt="r8">2793150000</Frequency><Timestamp dt:dt="r8">24335743742057</Timestamp><Current dt:dt="r8">0</Current><DateUtc dt:dt="string">2010-07-29T18:43:38Z</DateUtc></FrequencyChange></FrequencyChanges></Clock>\n	7/29/2010 1:43:38 PM	59.870	1	673331072	07-29-2010	13:43:38	6:43:38 PM	3	3	1	3	94	Done.bmp	mission	567956	Get ready for the next game to start.	M2	Blocks	15	0	2500	1	112	109	.	15	fire.bmp	636597		0	0	disp	List3	-5	5	635094	5	785	635879	firt	psw@
PictureTask_List_A	2164	1	<?xml version="1.0"?>\n<Clock xmlns:dt="urn:schemas-microsoft-com:datatypes"><Description dt:dt="string">E-Prime Primary Realtime Clock</Description><StartTime><Timestamp dt:dt="int">0</Timestamp><DateUtc dt:dt="string">2010-07-29T18:43:38Z</DateUtc></StartTime><FrequencyChanges><FrequencyChange><Frequency dt:dt="r8">2793150000</Frequency><Timestamp dt:dt="r8">24335743742057</Timestamp><Current dt:dt="r8">0</Current><DateUtc dt:dt="string">2010-07-29T18:43:38Z</DateUtc></FrequencyChange></FrequencyChanges></Clock>\n	7/29/2010 1:43:38 PM	59.870	1	673331072	07-29-2010	13:43:38	6:43:38 PM	3	3	1	3	94	Done.bmp	mission	567956	Get ready for the next game to start.	M2	Blocks	16	0	1600	1	113	110	.	16	fire.bmp	640589		0	0	disp	List3	-13	13	639102	5	1073	640175	fime	psw@
PictureTask_List_A	2164	1	<?xml version="1.0"?>\n<Clock xmlns:dt="urn:schemas-microsoft-com:datatypes"><Description dt:dt="string">E-Prime Primary Realtime Clock</Description><StartTime><Timestamp dt:dt="int">0</Timestamp><DateUtc dt:dt="string">2010-07-29T18:43:38Z</DateUtc></StartTime><FrequencyChanges><FrequencyChange><Frequency dt:dt="r8">2793150000</Frequency><Timestamp dt:dt="r8">24335743742057</Timestamp><Current dt:dt="r8">0</Current><DateUtc dt:dt="string">2010-07-29T18:43:38Z</DateUtc></FrequencyChange></FrequencyChanges></Clock>\n	7/29/2010 1:43:38 PM	59.870	1	673331072	07-29-2010	13:43:38	6:43:38 PM	3	3	1	3	94	Done.bmp	mission	567956	Get ready for the next game to start.	M2	Blocks	17	1	1700	1	114	111	.	17	fire.bmp	643696		0	0	disp	List3	-3	3	642192		0	0	fire	match@
PictureTask_List_A	2164	1	<?xml version="1.0"?>\n<Clock xmlns:dt="urn:schemas-microsoft-com:datatypes"><Description dt:dt="string">E-Prime Primary Realtime Clock</Description><StartTime><Timestamp dt:dt="int">0</Timestamp><DateUtc dt:dt="string">2010-07-29T18:43:38Z</DateUtc></StartTime><FrequencyChanges><FrequencyChange><Frequency dt:dt="r8">2793150000</Frequency><Timestamp dt:dt="r8">24335743742057</Timestamp><Current dt:dt="r8">0</Current><DateUtc dt:dt="string">2010-07-29T18:43:38Z</DateUtc></FrequencyChange></FrequencyChanges></Clock>\n	7/29/2010 1:43:38 PM	59.870	1	673331072	07-29-2010	13:43:38	6:43:38 PM	3	3	1	3	94	Done.bmp	mission	567956	Get ready for the next game to start.	M2	Blocks	18	0	2600	1	115	112	.	18	fire.bmp	646903		0	0	disp	List3	-10	10	645399		0	0	fkrc	con@
PictureTask_List_A	2164	1	<?xml version="1.0"?>\n<Clock xmlns:dt="urn:schemas-microsoft-com:datatypes"><Description dt:dt="string">E-Prime Primary Realtime Clock</Description><StartTime><Timestamp dt:dt="int">0</Timestamp><DateUtc dt:dt="string">2010-07-29T18:43:38Z</DateUtc></StartTime><FrequencyChanges><FrequencyChange><Frequency dt:dt="r8">2793150000</Frequency><Timestamp dt:dt="r8">24335743742057</Timestamp><Current dt:dt="r8">0</Current><DateUtc dt:dt="string">2010-07-29T18:43:38Z</DateUtc></FrequencyChange></FrequencyChanges></Clock>\n	7/29/2010 1:43:38 PM	59.870	1	673331072	07-29-2010	13:43:38	6:43:38 PM	3	3	1	3	94	Done.bmp	mission	567956	Get ready for the next game to start.	M2	Blocks	19	0	3000	1	116	113	.	19	bkgd.bmp	650995		0	0	disp	List3	-3	3	649492		0	0		@
PictureTask_List_A	2164	1	<?xml version="1.0"?>\n<Clock xmlns:dt="urn:schemas-microsoft-com:datatypes"><Description dt:dt="string">E-Prime Primary Realtime Clock</Description><StartTime><Timestamp dt:dt="int">0</Timestamp><DateUtc dt:dt="string">2010-07-29T18:43:38Z</DateUtc></StartTime><FrequencyChanges><FrequencyChange><Frequency dt:dt="r8">2793150000</Frequency><Timestamp dt:dt="r8">24335743742057</Timestamp><Current dt:dt="r8">0</Current><DateUtc dt:dt="string">2010-07-29T18:43:38Z</DateUtc></FrequencyChange></FrequencyChanges></Clock>\n	7/29/2010 1:43:38 PM	59.870	1	673331072	07-29-2010	13:43:38	6:43:38 PM	3	3	1	3	94	Done.bmp	mission	567956	Get ready for the next game to start.	M2	Blocks	20	0	1900	1	117	114	.	20	cake.bmp	655488		0	0	disp	List3	-12	12	654001		0	0		@
PictureTask_List_A	2164	1	<?xml version="1.0"?>\n<Clock xmlns:dt="urn:schemas-microsoft-com:datatypes"><Description dt:dt="string">E-Prime Primary Realtime Clock</Description><StartTime><Timestamp dt:dt="int">0</Timestamp><DateUtc dt:dt="string">2010-07-29T18:43:38Z</DateUtc></StartTime><FrequencyChanges><FrequencyChange><Frequency dt:dt="r8">2793150000</Frequency><Timestamp dt:dt="r8">24335743742057</Timestamp><Current dt:dt="r8">0</Current><DateUtc dt:dt="string">2010-07-29T18:43:38Z</DateUtc></FrequencyChange></FrequencyChanges></Clock>\n	7/29/2010 1:43:38 PM	59.870	1	673331072	07-29-2010	13:43:38	6:43:38 PM	3	3	1	3	94	Done.bmp	mission	567956	Get ready for the next game to start.	M2	Blocks	21	0	2800	1	118	115	.	21	cake.bmp	658895		0	0	disp	List3	-3	3	657392	5	1095	658487	cabe	psw@
PictureTask_List_A	2164	1	<?xml version="1.0"?>\n<Clock xmlns:dt="urn:schemas-microsoft-com:datatypes"><Description dt:dt="string">E-Prime Primary Realtime Clock</Description><StartTime><Timestamp dt:dt="int">0</Timestamp><DateUtc dt:dt="string">2010-07-29T18:43:38Z</DateUtc></StartTime><FrequencyChanges><FrequencyChange><Frequency dt:dt="r8">2793150000</Frequency><Timestamp dt:dt="r8">24335743742057</Timestamp><Current dt:dt="r8">0</Current><DateUtc dt:dt="string">2010-07-29T18:43:38Z</DateUtc></FrequencyChange></FrequencyChanges></Clock>\n	7/29/2010 1:43:38 PM	59.870	1	673331072	07-29-2010	13:43:38	6:43:38 PM	3	3	1	3	94	Done.bmp	mission	567956	Get ready for the next game to start.	M2	Blocks	22	0	2800	1	119	116	.	22	cake.bmp	663188		0	0	disp	List3	-12	12	661701		0	0	ckky	con@
PictureTask_List_A	2164	1	<?xml version="1.0"?>\n<Clock xmlns:dt="urn:schemas-microsoft-com:datatypes"><Description dt:dt="string">E-Prime Primary Realtime Clock</Description><StartTime><Timestamp dt:dt="int">0</Timestamp><DateUtc dt:dt="string">2010-07-29T18:43:38Z</DateUtc></StartTime><FrequencyChanges><FrequencyChange><Frequency dt:dt="r8">2793150000</Frequency><Timestamp dt:dt="r8">24335743742057</Timestamp><Current dt:dt="r8">0</Current><DateUtc dt:dt="string">2010-07-29T18:43:38Z</DateUtc></FrequencyChange></FrequencyChanges></Clock>\n	7/29/2010 1:43:38 PM	59.870	1	673331072	07-29-2010	13:43:38	6:43:38 PM	3	3	1	3	94	Done.bmp	mission	567956	Get ready for the next game to start.	M2	Blocks	23	0	1900	1	120	117	.	23	cake.bmp	667497		0	0	disp	List3	-5	5	665994	5	1485	667479	camp	wrd@
PictureTask_List_A	2164	1	<?xml version="1.0"?>\n<Clock xmlns:dt="urn:schemas-microsoft-com:datatypes"><Description dt:dt="string">E-Prime Primary Realtime Clock</Description><StartTime><Timestamp dt:dt="int">0</Timestamp><DateUtc dt:dt="string">2010-07-29T18:43:38Z</DateUtc></StartTime><FrequencyChanges><FrequencyChange><Frequency dt:dt="r8">2793150000</Frequency><Timestamp dt:dt="r8">24335743742057</Timestamp><Current dt:dt="r8">0</Current><DateUtc dt:dt="string">2010-07-29T18:43:38Z</DateUtc></FrequencyChange></FrequencyChanges></Clock>\n	7/29/2010 1:43:38 PM	59.870	1	673331072	07-29-2010	13:43:38	6:43:38 PM	3	3	1	3	94	Done.bmp	mission	567956	Get ready for the next game to start.	M2	Blocks	24	0	2700	1	121	118	.	24	cake.bmp	670888		0	0	disp	List3	-12	12	669401	5	838	670239	ctkj	con@
PictureTask_List_A	2164	1	<?xml version="1.0"?>\n<Clock xmlns:dt="urn:schemas-microsoft-com:datatypes"><Description dt:dt="string">E-Prime Primary Realtime Clock</Description><StartTime><Timestamp dt:dt="int">0</Timestamp><DateUtc dt:dt="string">2010-07-29T18:43:38Z</DateUtc></StartTime><FrequencyChanges><FrequencyChange><Frequency dt:dt="r8">2793150000</Frequency><Timestamp dt:dt="r8">24335743742057</Timestamp><Current dt:dt="r8">0</Current><DateUtc dt:dt="string">2010-07-29T18:43:38Z</DateUtc></FrequencyChange></FrequencyChanges></Clock>\n	7/29/2010 1:43:38 PM	59.870	1	673331072	07-29-2010	13:43:38	6:43:38 PM	3	3	1	3	94	Done.bmp	mission	567956	Get ready for the next game to start.	M2	Blocks	25	0	1500	1	122	119	.	25	cake.bmp	675097		0	0	disp	List3	-5	5	673594	6	581	674175	cape	wrd@
PictureTask_List_A	2164	1	<?xml version="1.0"?>\n<Clock xmlns:dt="urn:schemas-microsoft-com:datatypes"><Description dt:dt="string">E-Prime Primary Realtime Clock</Description><StartTime><Timestamp dt:dt="int">0</Timestamp><DateUtc dt:dt="string">2010-07-29T18:43:38Z</DateUtc></StartTime><FrequencyChanges><FrequencyChange><Frequency dt:dt="r8">2793150000</Frequency><Timestamp dt:dt="r8">24335743742057</Timestamp><Current dt:dt="r8">0</Current><DateUtc dt:dt="string">2010-07-29T18:43:38Z</DateUtc></FrequencyChange></FrequencyChanges></Clock>\n	7/29/2010 1:43:38 PM	59.870	1	673331072	07-29-2010	13:43:38	6:43:38 PM	3	3	1	3	94	Done.bmp	mission	567956	Get ready for the next game to start.	M2	Blocks	26	0	2400	1	123	120	.	26	cake.bmp	678088		0	0	disp	List3	-11	11	676600	5	1334	677934	cark	psw@
PictureTask_List_A	2164	1	<?xml version="1.0"?>\n<Clock xmlns:dt="urn:schemas-microsoft-com:datatypes"><Description dt:dt="string">E-Prime Primary Realtime Clock</Description><StartTime><Timestamp dt:dt="int">0</Timestamp><DateUtc dt:dt="string">2010-07-29T18:43:38Z</DateUtc></StartTime><FrequencyChanges><FrequencyChange><Frequency dt:dt="r8">2793150000</Frequency><Timestamp dt:dt="r8">24335743742057</Timestamp><Current dt:dt="r8">0</Current><DateUtc dt:dt="string">2010-07-29T18:43:38Z</DateUtc></FrequencyChange></FrequencyChanges></Clock>\n	7/29/2010 1:43:38 PM	59.870	1	673331072	07-29-2010	13:43:38	6:43:38 PM	3	3	1	3	94	Done.bmp	mission	567956	Get ready for the next game to start.	M2	Blocks	27	1	2900	1	124	121	.	27	cake.bmp	681995		0	0	disp	List3	-3	3	680492	5	666	681158	cake	match@
PictureTask_List_A	2164	1	<?xml version="1.0"?>\n<Clock xmlns:dt="urn:schemas-microsoft-com:datatypes"><Description dt:dt="string">E-Prime Primary Realtime Clock</Description><StartTime><Timestamp dt:dt="int">0</Timestamp><DateUtc dt:dt="string">2010-07-29T18:43:38Z</DateUtc></StartTime><FrequencyChanges><FrequencyChange><Frequency dt:dt="r8">2793150000</Frequency><Timestamp dt:dt="r8">24335743742057</Timestamp><Current dt:dt="r8">0</Current><DateUtc dt:dt="string">2010-07-29T18:43:38Z</DateUtc></FrequencyChange></FrequencyChanges></Clock>\n	7/29/2010 1:43:38 PM	59.870	1	673331072	07-29-2010	13:43:38	6:43:38 PM	3	3	1	3	94	Done.bmp	mission	567956	Get ready for the next game to start.	M2	Blocks	28	0	3200	1	125	122	.	28	bkgd.bmp	686388		0	0	disp	List3	-13	13	684902		0	0		@
PictureTask_List_A	2164	1	<?xml version="1.0"?>\n<Clock xmlns:dt="urn:schemas-microsoft-com:datatypes"><Description dt:dt="string">E-Prime Primary Realtime Clock</Description><StartTime><Timestamp dt:dt="int">0</Timestamp><DateUtc dt:dt="string">2010-07-29T18:43:38Z</DateUtc></StartTime><FrequencyChanges><FrequencyChange><Frequency dt:dt="r8">2793150000</Frequency><Timestamp dt:dt="r8">24335743742057</Timestamp><Current dt:dt="r8">0</Current><DateUtc dt:dt="string">2010-07-29T18:43:38Z</DateUtc></FrequencyChange></FrequencyChanges></Clock>\n	7/29/2010 1:43:38 PM	59.870	1	673331072	07-29-2010	13:43:38	6:43:38 PM	3	3	1	3	94	Done.bmp	mission	567956	Get ready for the next game to start.	M2	Blocks	29	0	1900	1	126	123	.	29	truck.bmp	691099		0	0	disp	List3	-6	6	689595		0	0		@
PictureTask_List_A	2164	1	<?xml version="1.0"?>\n<Clock xmlns:dt="urn:schemas-microsoft-com:datatypes"><Description dt:dt="string">E-Prime Primary Realtime Clock</Description><StartTime><Timestamp dt:dt="int">0</Timestamp><DateUtc dt:dt="string">2010-07-29T18:43:38Z</DateUtc></StartTime><FrequencyChanges><FrequencyChange><Frequency dt:dt="r8">2793150000</Frequency><Timestamp dt:dt="r8">24335743742057</Timestamp><Current dt:dt="r8">0</Current><DateUtc dt:dt="string">2010-07-29T18:43:38Z</DateUtc></FrequencyChange></FrequencyChanges></Clock>\n	7/29/2010 1:43:38 PM	59.870	1	673331072	07-29-2010	13:43:38	6:43:38 PM	3	3	1	3	94	Done.bmp	mission	567956	Get ready for the next game to start.	M2	Blocks	30	0	1800	1	127	124	.	30	truck.bmp	694489		0	0	disp	List3	-14	14	693003	5	811	693814	tkjk	con@
