ExperimentName	Subject	Session	Clock.Information	Clock.StartTimeOfDay	Display.RefreshRate	Group	RandomSeed	SessionDate	SessionTime	SessionTimeUtc	Block	Blocks	Blocks.Cycle	Blocks.Sample	Cnt	doneScr	Intermission.OffsetTime	Procedure[Block]	Ready.OffsetTime	readyScr	runList	Running[Block]	Trial	ch2.OnsetTime	ch2.RESP	ch2.RT	ch2.RTTime	jitter	List3	List3.Cycle	List3.Sample	M1	M2	M3	Procedure[Trial]	Running[Trial]	stim.OnsetTime	stim.RESP	stim.RT	stim.RTTime	text1
Repetition_current	2380	1	"<?xml version=""1.0""?>\n<Clock xmlns:dt=""urn:schemas-microsoft-com:datatypes""><Description dt:dt=""string"">E-Prime Primary Realtime Clock</Description><StartTime><Timestamp dt:dt=""int"">0</Timestamp><DateUtc dt:dt=""string"">2010-10-19T19:13:02Z</DateUtc></StartTime><FrequencyChanges><FrequencyChange><Frequency dt:dt=""r8"">2793150000</Frequency><Timestamp dt:dt=""r8"">1.55659376618066E+15</Timestamp><Current dt:dt=""r8"">0</Current><DateUtc dt:dt=""string"">2010-10-19T19:13:02Z</DateUtc></FrequencyChange></FrequencyChanges></Clock>\n"	10/19/10 14:13	59.87	1	-953055640	10/19/10	14:13:02	7:13:02 PM	1	1	1	1	72	Done.bmp	370051	mission	17803	Ready2.bmp	M1	Blocks	1	65268		0	0	3000	1	2	1	1	.	.	disp	List3	63781		0	0	fine@
Repetition_current	2380	1	"<?xml version=""1.0""?>\n<Clock xmlns:dt=""urn:schemas-microsoft-com:datatypes""><Description dt:dt=""string"">E-Prime Primary Realtime Clock</Description><StartTime><Timestamp dt:dt=""int"">0</Timestamp><DateUtc dt:dt=""string"">2010-10-19T19:13:02Z</DateUtc></StartTime><FrequencyChanges><FrequencyChange><Frequency dt:dt=""r8"">2793150000</Frequency><Timestamp dt:dt=""r8"">1.55659376618066E+15</Timestamp><Current dt:dt=""r8"">0</Current><DateUtc dt:dt=""string"">2010-10-19T19:13:02Z</DateUtc></FrequencyChange></FrequencyChanges></Clock>\n"	10/19/10 14:13	59.87	1	-953055640	10/19/10	14:13:02	7:13:02 PM	1	1	1	1	72	Done.bmp	370051	mission	17803	Ready2.bmp	M1	Blocks	2	69777		0	0	2500	1	3	2	2	.	.	disp	List3	68274	6	602	68876	hope@
Repetition_current	2380	1	"<?xml version=""1.0""?>\n<Clock xmlns:dt=""urn:schemas-microsoft-com:datatypes""><Description dt:dt=""string"">E-Prime Primary Realtime Clock</Description><StartTime><Timestamp dt:dt=""int"">0</Timestamp><DateUtc dt:dt=""string"">2010-10-19T19:13:02Z</DateUtc></StartTime><FrequencyChanges><FrequencyChange><Frequency dt:dt=""r8"">2793150000</Frequency><Timestamp dt:dt=""r8"">1.55659376618066E+15</Timestamp><Current dt:dt=""r8"">0</Current><DateUtc dt:dt=""string"">2010-10-19T19:13:02Z</DateUtc></FrequencyChange></FrequencyChanges></Clock>\n"	10/19/10 14:13	59.87	1	-953055640	10/19/10	14:13:02	7:13:02 PM	1	1	1	1	72	Done.bmp	370051	mission	17803	Ready2.bmp	M1	Blocks	3	73769		0	0	1800	1	4	3	3	.	.	disp	List3	72266	6	658	72924	kept@
Repetition_current	2380	1	"<?xml version=""1.0""?>\n<Clock xmlns:dt=""urn:schemas-microsoft-com:datatypes""><Description dt:dt=""string"">E-Prime Primary Realtime Clock</Description><StartTime><Timestamp dt:dt=""int"">0</Timestamp><DateUtc dt:dt=""string"">2010-10-19T19:13:02Z</DateUtc></StartTime><FrequencyChanges><FrequencyChange><Frequency dt:dt=""r8"">2793150000</Frequency><Timestamp dt:dt=""r8"">1.55659376618066E+15</Timestamp><Current dt:dt=""r8"">0</Current><DateUtc dt:dt=""string"">2010-10-19T19:13:02Z</DateUtc></FrequencyChange></FrequencyChanges></Clock>\n"	10/19/10 14:13	59.87	1	-953055640	10/19/10	14:13:02	7:13:02 PM	1	1	1	1	72	Done.bmp	370051	mission	17803	Ready2.bmp	M1	Blocks	4	77077		0	0	2700	1	5	4	4	.	.	disp	List3	75573	5	815	76388	jeet@
Repetition_current	2380	1	"<?xml version=""1.0""?>\n<Clock xmlns:dt=""urn:schemas-microsoft-com:datatypes""><Description dt:dt=""string"">E-Prime Primary Realtime Clock</Description><StartTime><Timestamp dt:dt=""int"">0</Timestamp><DateUtc dt:dt=""string"">2010-10-19T19:13:02Z</DateUtc></StartTime><FrequencyChanges><FrequencyChange><Frequency dt:dt=""r8"">2793150000</Frequency><Timestamp dt:dt=""r8"">1.55659376618066E+15</Timestamp><Current dt:dt=""r8"">0</Current><DateUtc dt:dt=""string"">2010-10-19T19:13:02Z</DateUtc></FrequencyChange></FrequencyChanges></Clock>\n"	10/19/10 14:13	59.87	1	-953055640	10/19/10	14:13:02	7:13:02 PM	1	1	1	1	72	Done.bmp	370051	mission	17803	Ready2.bmp	M1	Blocks	5	81269		0	0	3000	1	6	5	5	.	.	disp	List3	79766	5	686	80452	libe@
Repetition_current	2380	1	"<?xml version=""1.0""?>\n<Clock xmlns:dt=""urn:schemas-microsoft-com:datatypes""><Description dt:dt=""string"">E-Prime Primary Realtime Clock</Description><StartTime><Timestamp dt:dt=""int"">0</Timestamp><DateUtc dt:dt=""string"">2010-10-19T19:13:02Z</DateUtc></StartTime><FrequencyChanges><FrequencyChange><Frequency dt:dt=""r8"">2793150000</Frequency><Timestamp dt:dt=""r8"">1.55659376618066E+15</Timestamp><Current dt:dt=""r8"">0</Current><DateUtc dt:dt=""string"">2010-10-19T19:13:02Z</DateUtc></FrequencyChange></FrequencyChanges></Clock>\n"	10/19/10 14:13	59.87	1	-953055640	10/19/10	14:13:02	7:13:02 PM	1	1	1	1	72	Done.bmp	370051	mission	17803	Ready2.bmp	M1	Blocks	6	85763		0	0	1000	1	7	6	6	.	.	disp	List3	84276	5	727	85003	pait@
Repetition_current	2380	1	"<?xml version=""1.0""?>\n<Clock xmlns:dt=""urn:schemas-microsoft-com:datatypes""><Description dt:dt=""string"">E-Prime Primary Realtime Clock</Description><StartTime><Timestamp dt:dt=""int"">0</Timestamp><DateUtc dt:dt=""string"">2010-10-19T19:13:02Z</DateUtc></StartTime><FrequencyChanges><FrequencyChange><Frequency dt:dt=""r8"">2793150000</Frequency><Timestamp dt:dt=""r8"">1.55659376618066E+15</Timestamp><Current dt:dt=""r8"">0</Current><DateUtc dt:dt=""string"">2010-10-19T19:13:02Z</DateUtc></FrequencyChange></FrequencyChanges></Clock>\n"	10/19/10 14:13	59.87	1	-953055640	10/19/10	14:13:02	7:13:02 PM	1	1	1	1	72	Done.bmp	370051	mission	17803	Ready2.bmp	M1	Blocks	7	88268		0	0	1700	1	8	7	7	.	.	disp	List3	86764	6	655	87419	rock@
Repetition_current	2380	1	"<?xml version=""1.0""?>\n<Clock xmlns:dt=""urn:schemas-microsoft-com:datatypes""><Description dt:dt=""string"">E-Prime Primary Realtime Clock</Description><StartTime><Timestamp dt:dt=""int"">0</Timestamp><DateUtc dt:dt=""string"">2010-10-19T19:13:02Z</DateUtc></StartTime><FrequencyChanges><FrequencyChange><Frequency dt:dt=""r8"">2793150000</Frequency><Timestamp dt:dt=""r8"">1.55659376618066E+15</Timestamp><Current dt:dt=""r8"">0</Current><DateUtc dt:dt=""string"">2010-10-19T19:13:02Z</DateUtc></FrequencyChange></FrequencyChanges></Clock>\n"	10/19/10 14:13	59.87	1	-953055640	10/19/10	14:13:02	7:13:02 PM	1	1	1	1	72	Done.bmp	370051	mission	17803	Ready2.bmp	M1	Blocks	8	91474		0	0	2200	1	9	8	8	.	.	disp	List3	89971	6	664	90635	ship@
Repetition_current	2380	1	"<?xml version=""1.0""?>\n<Clock xmlns:dt=""urn:schemas-microsoft-com:datatypes""><Description dt:dt=""string"">E-Prime Primary Realtime Clock</Description><StartTime><Timestamp dt:dt=""int"">0</Timestamp><DateUtc dt:dt=""string"">2010-10-19T19:13:02Z</DateUtc></StartTime><FrequencyChanges><FrequencyChange><Frequency dt:dt=""r8"">2793150000</Frequency><Timestamp dt:dt=""r8"">1.55659376618066E+15</Timestamp><Current dt:dt=""r8"">0</Current><DateUtc dt:dt=""string"">2010-10-19T19:13:02Z</DateUtc></FrequencyChange></FrequencyChanges></Clock>\n"	10/19/10 14:13	59.87	1	-953055640	10/19/10	14:13:02	7:13:02 PM	1	1	1	1	72	Done.bmp	370051	mission	17803	Ready2.bmp	M1	Blocks	9	95166		0	0	2400	1	10	9	9	.	.	disp	List3	93663	6	780	94443	sit@
Repetition_current	2380	1	"<?xml version=""1.0""?>\n<Clock xmlns:dt=""urn:schemas-microsoft-com:datatypes""><Description dt:dt=""string"">E-Prime Primary Realtime Clock</Description><StartTime><Timestamp dt:dt=""int"">0</Timestamp><DateUtc dt:dt=""string"">2010-10-19T19:13:02Z</DateUtc></StartTime><FrequencyChanges><FrequencyChange><Frequency dt:dt=""r8"">2793150000</Frequency><Timestamp dt:dt=""r8"">1.55659376618066E+15</Timestamp><Current dt:dt=""r8"">0</Current><DateUtc dt:dt=""string"">2010-10-19T19:13:02Z</DateUtc></FrequencyChange></FrequencyChanges></Clock>\n"	10/19/10 14:13	59.87	1	-953055640	10/19/10	14:13:02	7:13:02 PM	1	1	1	1	72	Done.bmp	370051	mission	17803	Ready2.bmp	M1	Blocks	10	99074		0	0	11800	1	11	10	10	.	.	disp	List3	97571	5	648	98219	pdgp@
Repetition_current	2380	1	"<?xml version=""1.0""?>\n<Clock xmlns:dt=""urn:schemas-microsoft-com:datatypes""><Description dt:dt=""string"">E-Prime Primary Realtime Clock</Description><StartTime><Timestamp dt:dt=""int"">0</Timestamp><DateUtc dt:dt=""string"">2010-10-19T19:13:02Z</DateUtc></StartTime><FrequencyChanges><FrequencyChange><Frequency dt:dt=""r8"">2793150000</Frequency><Timestamp dt:dt=""r8"">1.55659376618066E+15</Timestamp><Current dt:dt=""r8"">0</Current><DateUtc dt:dt=""string"">2010-10-19T19:13:02Z</DateUtc></FrequencyChange></FrequencyChanges></Clock>\n"	10/19/10 14:13	59.87	1	-953055640	10/19/10	14:13:02	7:13:02 PM	1	1	1	1	72	Done.bmp	370051	mission	17803	Ready2.bmp	M1	Blocks	11	112370		0	0	3000	1	12	11	11	.	.	disp	List3	110867	5	784	111651	wlr@
Repetition_current	2380	1	"<?xml version=""1.0""?>\n<Clock xmlns:dt=""urn:schemas-microsoft-com:datatypes""><Description dt:dt=""string"">E-Prime Primary Realtime Clock</Description><StartTime><Timestamp dt:dt=""int"">0</Timestamp><DateUtc dt:dt=""string"">2010-10-19T19:13:02Z</DateUtc></StartTime><FrequencyChanges><FrequencyChange><Frequency dt:dt=""r8"">2793150000</Frequency><Timestamp dt:dt=""r8"">1.55659376618066E+15</Timestamp><Current dt:dt=""r8"">0</Current><DateUtc dt:dt=""string"">2010-10-19T19:13:02Z</DateUtc></FrequencyChange></FrequencyChanges></Clock>\n"	10/19/10 14:13	59.87	1	-953055640	10/19/10	14:13:02	7:13:02 PM	1	1	1	1	72	Done.bmp	370051	mission	17803	Ready2.bmp	M1	Blocks	12	116863		0	0	2800	1	13	12	12	.	.	disp	List3	115376	5	837	116213	fxct@
Repetition_current	2380	1	"<?xml version=""1.0""?>\n<Clock xmlns:dt=""urn:schemas-microsoft-com:datatypes""><Description dt:dt=""string"">E-Prime Primary Realtime Clock</Description><StartTime><Timestamp dt:dt=""int"">0</Timestamp><DateUtc dt:dt=""string"">2010-10-19T19:13:02Z</DateUtc></StartTime><FrequencyChanges><FrequencyChange><Frequency dt:dt=""r8"">2793150000</Frequency><Timestamp dt:dt=""r8"">1.55659376618066E+15</Timestamp><Current dt:dt=""r8"">0</Current><DateUtc dt:dt=""string"">2010-10-19T19:13:02Z</DateUtc></FrequencyChange></FrequencyChanges></Clock>\n"	10/19/10 14:13	59.87	1	-953055640	10/19/10	14:13:02	7:13:02 PM	1	1	1	1	72	Done.bmp	370051	mission	17803	Ready2.bmp	M1	Blocks	13	121172		0	0	1800	1	14	13	13	.	.	disp	List3	119669	6	734	120403	sound@
Repetition_current	2380	1	"<?xml version=""1.0""?>\n<Clock xmlns:dt=""urn:schemas-microsoft-com:datatypes""><Description dt:dt=""string"">E-Prime Primary Realtime Clock</Description><StartTime><Timestamp dt:dt=""int"">0</Timestamp><DateUtc dt:dt=""string"">2010-10-19T19:13:02Z</DateUtc></StartTime><FrequencyChanges><FrequencyChange><Frequency dt:dt=""r8"">2793150000</Frequency><Timestamp dt:dt=""r8"">1.55659376618066E+15</Timestamp><Current dt:dt=""r8"">0</Current><DateUtc dt:dt=""string"">2010-10-19T19:13:02Z</DateUtc></FrequencyChange></FrequencyChanges></Clock>\n"	10/19/10 14:13	59.87	1	-953055640	10/19/10	14:13:02	7:13:02 PM	1	1	1	1	72	Done.bmp	370051	mission	17803	Ready2.bmp	M1	Blocks	14	124463		0	0	2500	1	15	14	14	.	.	disp	List3	122976	6	643	123619	wife@
Repetition_current	2380	1	"<?xml version=""1.0""?>\n<Clock xmlns:dt=""urn:schemas-microsoft-com:datatypes""><Description dt:dt=""string"">E-Prime Primary Realtime Clock</Description><StartTime><Timestamp dt:dt=""int"">0</Timestamp><DateUtc dt:dt=""string"">2010-10-19T19:13:02Z</DateUtc></StartTime><FrequencyChanges><FrequencyChange><Frequency dt:dt=""r8"">2793150000</Frequency><Timestamp dt:dt=""r8"">1.55659376618066E+15</Timestamp><Current dt:dt=""r8"">0</Current><DateUtc dt:dt=""string"">2010-10-19T19:13:02Z</DateUtc></FrequencyChange></FrequencyChanges></Clock>\n"	10/19/10 14:13	59.87	1	-953055640	10/19/10	14:13:02	7:13:02 PM	1	1	1	1	72	Done.bmp	370051	mission	17803	Ready2.bmp	M1	Blocks	15	128471		0	0	2200	1	16	15	15	.	.	disp	List3	126968	6	523	127491	wood@
Repetition_current	2380	1	"<?xml version=""1.0""?>\n<Clock xmlns:dt=""urn:schemas-microsoft-com:datatypes""><Description dt:dt=""string"">E-Prime Primary Realtime Clock</Description><StartTime><Timestamp dt:dt=""int"">0</Timestamp><DateUtc dt:dt=""string"">2010-10-19T19:13:02Z</DateUtc></StartTime><FrequencyChanges><FrequencyChange><Frequency dt:dt=""r8"">2793150000</Frequency><Timestamp dt:dt=""r8"">1.55659376618066E+15</Timestamp><Current dt:dt=""r8"">0</Current><DateUtc dt:dt=""string"">2010-10-19T19:13:02Z</DateUtc></FrequencyChange></FrequencyChanges></Clock>\n"	10/19/10 14:13	59.87	1	-953055640	10/19/10	14:13:02	7:13:02 PM	1	1	1	1	72	Done.bmp	370051	mission	17803	Ready2.bmp	M1	Blocks	16	132163		0	0	1300	1	17	16	16	.	.	disp	List3	130676	6	575	131251	write@
Repetition_current	2380	1	"<?xml version=""1.0""?>\n<Clock xmlns:dt=""urn:schemas-microsoft-com:datatypes""><Description dt:dt=""string"">E-Prime Primary Realtime Clock</Description><StartTime><Timestamp dt:dt=""int"">0</Timestamp><DateUtc dt:dt=""string"">2010-10-19T19:13:02Z</DateUtc></StartTime><FrequencyChanges><FrequencyChange><Frequency dt:dt=""r8"">2793150000</Frequency><Timestamp dt:dt=""r8"">1.55659376618066E+15</Timestamp><Current dt:dt=""r8"">0</Current><DateUtc dt:dt=""string"">2010-10-19T19:13:02Z</DateUtc></FrequencyChange></FrequencyChanges></Clock>\n"	10/19/10 14:13	59.87	1	-953055640	10/19/10	14:13:02	7:13:02 PM	1	1	1	1	72	Done.bmp	370051	mission	17803	Ready2.bmp	M1	Blocks	17	134969		0	0	1000	1	18	17	17	.	.	disp	List3	133466	5	672	134138	preet@
Repetition_current	2380	1	"<?xml version=""1.0""?>\n<Clock xmlns:dt=""urn:schemas-microsoft-com:datatypes""><Description dt:dt=""string"">E-Prime Primary Realtime Clock</Description><StartTime><Timestamp dt:dt=""int"">0</Timestamp><DateUtc dt:dt=""string"">2010-10-19T19:13:02Z</DateUtc></StartTime><FrequencyChanges><FrequencyChange><Frequency dt:dt=""r8"">2793150000</Frequency><Timestamp dt:dt=""r8"">1.55659376618066E+15</Timestamp><Current dt:dt=""r8"">0</Current><DateUtc dt:dt=""string"">2010-10-19T19:13:02Z</DateUtc></FrequencyChange></FrequencyChanges></Clock>\n"	10/19/10 14:13	59.87	1	-953055640	10/19/10	14:13:02	7:13:02 PM	1	1	1	1	72	Done.bmp	370051	mission	17803	Ready2.bmp	M1	Blocks	18	137474		0	0	1200	1	19	18	18	.	.	disp	List3	135971	5	1207	137178	reat@
Repetition_current	2380	1	"<?xml version=""1.0""?>\n<Clock xmlns:dt=""urn:schemas-microsoft-com:datatypes""><Description dt:dt=""string"">E-Prime Primary Realtime Clock</Description><StartTime><Timestamp dt:dt=""int"">0</Timestamp><DateUtc dt:dt=""string"">2010-10-19T19:13:02Z</DateUtc></StartTime><FrequencyChanges><FrequencyChange><Frequency dt:dt=""r8"">2793150000</Frequency><Timestamp dt:dt=""r8"">1.55659376618066E+15</Timestamp><Current dt:dt=""r8"">0</Current><DateUtc dt:dt=""string"">2010-10-19T19:13:02Z</DateUtc></FrequencyChange></FrequencyChanges></Clock>\n"	10/19/10 14:13	59.87	1	-953055640	10/19/10	14:13:02	7:13:02 PM	1	1	1	1	72	Done.bmp	370051	mission	17803	Ready2.bmp	M1	Blocks	19	140163		0	0	1400	1	20	19	19	.	.	disp	List3	138677	5	1013	139690	saip@
Repetition_current	2380	1	"<?xml version=""1.0""?>\n<Clock xmlns:dt=""urn:schemas-microsoft-com:datatypes""><Description dt:dt=""string"">E-Prime Primary Realtime Clock</Description><StartTime><Timestamp dt:dt=""int"">0</Timestamp><DateUtc dt:dt=""string"">2010-10-19T19:13:02Z</DateUtc></StartTime><FrequencyChanges><FrequencyChange><Frequency dt:dt=""r8"">2793150000</Frequency><Timestamp dt:dt=""r8"">1.55659376618066E+15</Timestamp><Current dt:dt=""r8"">0</Current><DateUtc dt:dt=""string"">2010-10-19T19:13:02Z</DateUtc></FrequencyChange></FrequencyChanges></Clock>\n"	10/19/10 14:13	59.87	1	-953055640	10/19/10	14:13:02	7:13:02 PM	1	1	1	1	72	Done.bmp	370051	mission	17803	Ready2.bmp	M1	Blocks	20	143070		0	0	2300	1	21	20	20	.	.	disp	List3	141566	5	596	142162	dwql@
Repetition_current	2380	1	"<?xml version=""1.0""?>\n<Clock xmlns:dt=""urn:schemas-microsoft-com:datatypes""><Description dt:dt=""string"">E-Prime Primary Realtime Clock</Description><StartTime><Timestamp dt:dt=""int"">0</Timestamp><DateUtc dt:dt=""string"">2010-10-19T19:13:02Z</DateUtc></StartTime><FrequencyChanges><FrequencyChange><Frequency dt:dt=""r8"">2793150000</Frequency><Timestamp dt:dt=""r8"">1.55659376618066E+15</Timestamp><Current dt:dt=""r8"">0</Current><DateUtc dt:dt=""string"">2010-10-19T19:13:02Z</DateUtc></FrequencyChange></FrequencyChanges></Clock>\n"	10/19/10 14:13	59.87	1	-953055640	10/19/10	14:13:02	7:13:02 PM	1	1	1	1	72	Done.bmp	370051	mission	17803	Ready2.bmp	M1	Blocks	21	146878		0	0	2000	1	22	21	21	.	.	disp	List3	145375	6	387	145762	chdncp@
Repetition_current	2380	1	"<?xml version=""1.0""?>\n<Clock xmlns:dt=""urn:schemas-microsoft-com:datatypes""><Description dt:dt=""string"">E-Prime Primary Realtime Clock</Description><StartTime><Timestamp dt:dt=""int"">0</Timestamp><DateUtc dt:dt=""string"">2010-10-19T19:13:02Z</DateUtc></StartTime><FrequencyChanges><FrequencyChange><Frequency dt:dt=""r8"">2793150000</Frequency><Timestamp dt:dt=""r8"">1.55659376618066E+15</Timestamp><Current dt:dt=""r8"">0</Current><DateUtc dt:dt=""string"">2010-10-19T19:13:02Z</DateUtc></FrequencyChange></FrequencyChanges></Clock>\n"	10/19/10 14:13	59.87	1	-953055640	10/19/10	14:13:02	7:13:02 PM	1	1	1	1	72	Done.bmp	370051	mission	17803	Ready2.bmp	M1	Blocks	22	150369		0	0	1000	1	23	22	22	.	.	disp	List3	148866	5	800	149666	flhhr@
Repetition_current	2380	1	"<?xml version=""1.0""?>\n<Clock xmlns:dt=""urn:schemas-microsoft-com:datatypes""><Description dt:dt=""string"">E-Prime Primary Realtime Clock</Description><StartTime><Timestamp dt:dt=""int"">0</Timestamp><DateUtc dt:dt=""string"">2010-10-19T19:13:02Z</DateUtc></StartTime><FrequencyChanges><FrequencyChange><Frequency dt:dt=""r8"">2793150000</Frequency><Timestamp dt:dt=""r8"">1.55659376618066E+15</Timestamp><Current dt:dt=""r8"">0</Current><DateUtc dt:dt=""string"">2010-10-19T19:13:02Z</DateUtc></FrequencyChange></FrequencyChanges></Clock>\n"	10/19/10 14:13	59.87	1	-953055640	10/19/10	14:13:02	7:13:02 PM	1	1	1	1	72	Done.bmp	370051	mission	17803	Ready2.bmp	M1	Blocks	23	152874		0	0	13000	1	24	23	23	.	.	disp	List3	151371	6	657	152028	stop@
Repetition_current	2380	1	"<?xml version=""1.0""?>\n<Clock xmlns:dt=""urn:schemas-microsoft-com:datatypes""><Description dt:dt=""string"">E-Prime Primary Realtime Clock</Description><StartTime><Timestamp dt:dt=""int"">0</Timestamp><DateUtc dt:dt=""string"">2010-10-19T19:13:02Z</DateUtc></StartTime><FrequencyChanges><FrequencyChange><Frequency dt:dt=""r8"">2793150000</Frequency><Timestamp dt:dt=""r8"">1.55659376618066E+15</Timestamp><Current dt:dt=""r8"">0</Current><DateUtc dt:dt=""string"">2010-10-19T19:13:02Z</DateUtc></FrequencyChange></FrequencyChanges></Clock>\n"	10/19/10 14:13	59.87	1	-953055640	10/19/10	14:13:02	7:13:02 PM	1	1	1	1	72	Done.bmp	370051	mission	17803	Ready2.bmp	M1	Blocks	24	167372		0	0	1200	1	25	24	24	.	.	disp	List3	165869	6	725	166594	try@
Repetition_current	2380	1	"<?xml version=""1.0""?>\n<Clock xmlns:dt=""urn:schemas-microsoft-com:datatypes""><Description dt:dt=""string"">E-Prime Primary Realtime Clock</Description><StartTime><Timestamp dt:dt=""int"">0</Timestamp><DateUtc dt:dt=""string"">2010-10-19T19:13:02Z</DateUtc></StartTime><FrequencyChanges><FrequencyChange><Frequency dt:dt=""r8"">2793150000</Frequency><Timestamp dt:dt=""r8"">1.55659376618066E+15</Timestamp><Current dt:dt=""r8"">0</Current><DateUtc dt:dt=""string"">2010-10-19T19:13:02Z</DateUtc></FrequencyChange></FrequencyChanges></Clock>\n"	10/19/10 14:13	59.87	1	-953055640	10/19/10	14:13:02	7:13:02 PM	1	1	1	1	72	Done.bmp	370051	mission	17803	Ready2.bmp	M1	Blocks	25	170063		0	0	3000	1	26	25	25	.	.	disp	List3	168575	6	731	169306	turn@
Repetition_current	2380	1	"<?xml version=""1.0""?>\n<Clock xmlns:dt=""urn:schemas-microsoft-com:datatypes""><Description dt:dt=""string"">E-Prime Primary Realtime Clock</Description><StartTime><Timestamp dt:dt=""int"">0</Timestamp><DateUtc dt:dt=""string"">2010-10-19T19:13:02Z</DateUtc></StartTime><FrequencyChanges><FrequencyChange><Frequency dt:dt=""r8"">2793150000</Frequency><Timestamp dt:dt=""r8"">1.55659376618066E+15</Timestamp><Current dt:dt=""r8"">0</Current><DateUtc dt:dt=""string"">2010-10-19T19:13:02Z</DateUtc></FrequencyChange></FrequencyChanges></Clock>\n"	10/19/10 14:13	59.87	1	-953055640	10/19/10	14:13:02	7:13:02 PM	1	1	1	1	72	Done.bmp	370051	mission	17803	Ready2.bmp	M1	Blocks	26	174571		0	0	1000	1	27	26	26	.	.	disp	List3	173068	6	638	173706	buy@
Repetition_current	2380	1	"<?xml version=""1.0""?>\n<Clock xmlns:dt=""urn:schemas-microsoft-com:datatypes""><Description dt:dt=""string"">E-Prime Primary Realtime Clock</Description><StartTime><Timestamp dt:dt=""int"">0</Timestamp><DateUtc dt:dt=""string"">2010-10-19T19:13:02Z</DateUtc></StartTime><FrequencyChanges><FrequencyChange><Frequency dt:dt=""r8"">2793150000</Frequency><Timestamp dt:dt=""r8"">1.55659376618066E+15</Timestamp><Current dt:dt=""r8"">0</Current><DateUtc dt:dt=""string"">2010-10-19T19:13:02Z</DateUtc></FrequencyChange></FrequencyChanges></Clock>\n"	10/19/10 14:13	59.87	1	-953055640	10/19/10	14:13:02	7:13:02 PM	1	1	1	1	72	Done.bmp	370051	mission	17803	Ready2.bmp	M1	Blocks	27	177077		0	0	3000	1	28	27	27	.	.	disp	List3	175574	6	684	176258	care@
Repetition_current	2380	1	"<?xml version=""1.0""?>\n<Clock xmlns:dt=""urn:schemas-microsoft-com:datatypes""><Description dt:dt=""string"">E-Prime Primary Realtime Clock</Description><StartTime><Timestamp dt:dt=""int"">0</Timestamp><DateUtc dt:dt=""string"">2010-10-19T19:13:02Z</DateUtc></StartTime><FrequencyChanges><FrequencyChange><Frequency dt:dt=""r8"">2793150000</Frequency><Timestamp dt:dt=""r8"">1.55659376618066E+15</Timestamp><Current dt:dt=""r8"">0</Current><DateUtc dt:dt=""string"">2010-10-19T19:13:02Z</DateUtc></FrequencyChange></FrequencyChanges></Clock>\n"	10/19/10 14:13	59.87	1	-953055640	10/19/10	14:13:02	7:13:02 PM	1	1	1	1	72	Done.bmp	370051	mission	17803	Ready2.bmp	M1	Blocks	28	181570		0	0	2200	1	29	28	28	.	.	disp	List3	180067	6	662	180729	feel@
Repetition_current	2380	1	"<?xml version=""1.0""?>\n<Clock xmlns:dt=""urn:schemas-microsoft-com:datatypes""><Description dt:dt=""string"">E-Prime Primary Realtime Clock</Description><StartTime><Timestamp dt:dt=""int"">0</Timestamp><DateUtc dt:dt=""string"">2010-10-19T19:13:02Z</DateUtc></StartTime><FrequencyChanges><FrequencyChange><Frequency dt:dt=""r8"">2793150000</Frequency><Timestamp dt:dt=""r8"">1.55659376618066E+15</Timestamp><Current dt:dt=""r8"">0</Current><DateUtc dt:dt=""string"">2010-10-19T19:13:02Z</DateUtc></FrequencyChange></FrequencyChanges></Clock>\n"	10/19/10 14:13	59.87	1	-953055640	10/19/10	14:13:02	7:13:02 PM	1	1	1	1	72	Done.bmp	370051	mission	17803	Ready2.bmp	M1	Blocks	29	185278		0	0	2000	1	30	29	29	.	.	disp	List3	183775	5	770	184545	brong@
Repetition_current	2380	1	"<?xml version=""1.0""?>\n<Clock xmlns:dt=""urn:schemas-microsoft-com:datatypes""><Description dt:dt=""string"">E-Prime Primary Realtime Clock</Description><StartTime><Timestamp dt:dt=""int"">0</Timestamp><DateUtc dt:dt=""string"">2010-10-19T19:13:02Z</DateUtc></StartTime><FrequencyChanges><FrequencyChange><Frequency dt:dt=""r8"">2793150000</Frequency><Timestamp dt:dt=""r8"">1.55659376618066E+15</Timestamp><Current dt:dt=""r8"">0</Current><DateUtc dt:dt=""string"">2010-10-19T19:13:02Z</DateUtc></FrequencyChange></FrequencyChanges></Clock>\n"	10/19/10 14:13	59.87	1	-953055640	10/19/10	14:13:02	7:13:02 PM	1	1	1	1	72	Done.bmp	370051	mission	17803	Ready2.bmp	M1	Blocks	30	188769		0	0	1200	1	31	30	30	.	.	disp	List3	187266	5	991	188257	doil@
Repetition_current	2380	1	"<?xml version=""1.0""?>\n<Clock xmlns:dt=""urn:schemas-microsoft-com:datatypes""><Description dt:dt=""string"">E-Prime Primary Realtime Clock</Description><StartTime><Timestamp dt:dt=""int"">0</Timestamp><DateUtc dt:dt=""string"">2010-10-19T19:13:02Z</DateUtc></StartTime><FrequencyChanges><FrequencyChange><Frequency dt:dt=""r8"">2793150000</Frequency><Timestamp dt:dt=""r8"">1.55659376618066E+15</Timestamp><Current dt:dt=""r8"">0</Current><DateUtc dt:dt=""string"">2010-10-19T19:13:02Z</DateUtc></FrequencyChange></FrequencyChanges></Clock>\n"	10/19/10 14:13	59.87	1	-953055640	10/19/10	14:13:02	7:13:02 PM	1	1	1	1	72	Done.bmp	370051	mission	17803	Ready2.bmp	M1	Blocks	31	191475		0	0	2500	1	32	31	31	.	.	disp	List3	189971	5	806	190777	fomp@
Repetition_current	2380	1	"<?xml version=""1.0""?>\n<Clock xmlns:dt=""urn:schemas-microsoft-com:datatypes""><Description dt:dt=""string"">E-Prime Primary Realtime Clock</Description><StartTime><Timestamp dt:dt=""int"">0</Timestamp><DateUtc dt:dt=""string"">2010-10-19T19:13:02Z</DateUtc></StartTime><FrequencyChanges><FrequencyChange><Frequency dt:dt=""r8"">2793150000</Frequency><Timestamp dt:dt=""r8"">1.55659376618066E+15</Timestamp><Current dt:dt=""r8"">0</Current><DateUtc dt:dt=""string"">2010-10-19T19:13:02Z</DateUtc></FrequencyChange></FrequencyChanges></Clock>\n"	10/19/10 14:13	59.87	1	-953055640	10/19/10	14:13:02	7:13:02 PM	1	1	1	1	72	Done.bmp	370051	mission	17803	Ready2.bmp	M1	Blocks	32	195467		0	0	3000	1	33	32	32	.	.	disp	List3	193980	6	997	194977	box@
Repetition_current	2380	1	"<?xml version=""1.0""?>\n<Clock xmlns:dt=""urn:schemas-microsoft-com:datatypes""><Description dt:dt=""string"">E-Prime Primary Realtime Clock</Description><StartTime><Timestamp dt:dt=""int"">0</Timestamp><DateUtc dt:dt=""string"">2010-10-19T19:13:02Z</DateUtc></StartTime><FrequencyChanges><FrequencyChange><Frequency dt:dt=""r8"">2793150000</Frequency><Timestamp dt:dt=""r8"">1.55659376618066E+15</Timestamp><Current dt:dt=""r8"">0</Current><DateUtc dt:dt=""string"">2010-10-19T19:13:02Z</DateUtc></FrequencyChange></FrequencyChanges></Clock>\n"	10/19/10 14:13	59.87	1	-953055640	10/19/10	14:13:02	7:13:02 PM	1	1	1	1	72	Done.bmp	370051	mission	17803	Ready2.bmp	M1	Blocks	33	199977		0	0	1100	1	34	33	33	.	.	disp	List3	198473	6	808	199281	dark@
Repetition_current	2380	1	"<?xml version=""1.0""?>\n<Clock xmlns:dt=""urn:schemas-microsoft-com:datatypes""><Description dt:dt=""string"">E-Prime Primary Realtime Clock</Description><StartTime><Timestamp dt:dt=""int"">0</Timestamp><DateUtc dt:dt=""string"">2010-10-19T19:13:02Z</DateUtc></StartTime><FrequencyChanges><FrequencyChange><Frequency dt:dt=""r8"">2793150000</Frequency><Timestamp dt:dt=""r8"">1.55659376618066E+15</Timestamp><Current dt:dt=""r8"">0</Current><DateUtc dt:dt=""string"">2010-10-19T19:13:02Z</DateUtc></FrequencyChange></FrequencyChanges></Clock>\n"	10/19/10 14:13	59.87	1	-953055640	10/19/10	14:13:02	7:13:02 PM	1	1	1	1	72	Done.bmp	370051	mission	17803	Ready2.bmp	M1	Blocks	34	202565		0	0	2300	1	35	34	34	.	.	disp	List3	201063	6	642	201705	eat@
Repetition_current	2380	1	"<?xml version=""1.0""?>\n<Clock xmlns:dt=""urn:schemas-microsoft-com:datatypes""><Description dt:dt=""string"">E-Prime Primary Realtime Clock</Description><StartTime><Timestamp dt:dt=""int"">0</Timestamp><DateUtc dt:dt=""string"">2010-10-19T19:13:02Z</DateUtc></StartTime><FrequencyChanges><FrequencyChange><Frequency dt:dt=""r8"">2793150000</Frequency><Timestamp dt:dt=""r8"">1.55659376618066E+15</Timestamp><Current dt:dt=""r8"">0</Current><DateUtc dt:dt=""string"">2010-10-19T19:13:02Z</DateUtc></FrequencyChange></FrequencyChanges></Clock>\n"	10/19/10 14:13	59.87	1	-953055640	10/19/10	14:13:02	7:13:02 PM	1	1	1	1	72	Done.bmp	370051	mission	17803	Ready2.bmp	M1	Blocks	35	206374		0	0	12800	1	36	35	35	.	.	disp	List3	204870	6	643	205513	farm@
Repetition_current	2380	1	"<?xml version=""1.0""?>\n<Clock xmlns:dt=""urn:schemas-microsoft-com:datatypes""><Description dt:dt=""string"">E-Prime Primary Realtime Clock</Description><StartTime><Timestamp dt:dt=""int"">0</Timestamp><DateUtc dt:dt=""string"">2010-10-19T19:13:02Z</DateUtc></StartTime><FrequencyChanges><FrequencyChange><Frequency dt:dt=""r8"">2793150000</Frequency><Timestamp dt:dt=""r8"">1.55659376618066E+15</Timestamp><Current dt:dt=""r8"">0</Current><DateUtc dt:dt=""string"">2010-10-19T19:13:02Z</DateUtc></FrequencyChange></FrequencyChanges></Clock>\n"	10/19/10 14:13	59.87	1	-953055640	10/19/10	14:13:02	7:13:02 PM	1	1	1	1	72	Done.bmp	370051	mission	17803	Ready2.bmp	M1	Blocks	36	220671		0	0	1200	1	37	36	36	.	.	disp	List3	219168	5	777	219945	yad@
Repetition_current	2380	1	"<?xml version=""1.0""?>\n<Clock xmlns:dt=""urn:schemas-microsoft-com:datatypes""><Description dt:dt=""string"">E-Prime Primary Realtime Clock</Description><StartTime><Timestamp dt:dt=""int"">0</Timestamp><DateUtc dt:dt=""string"">2010-10-19T19:13:02Z</DateUtc></StartTime><FrequencyChanges><FrequencyChange><Frequency dt:dt=""r8"">2793150000</Frequency><Timestamp dt:dt=""r8"">1.55659376618066E+15</Timestamp><Current dt:dt=""r8"">0</Current><DateUtc dt:dt=""string"">2010-10-19T19:13:02Z</DateUtc></FrequencyChange></FrequencyChanges></Clock>\n"	10/19/10 14:13	59.87	1	-953055640	10/19/10	14:13:02	7:13:02 PM	1	1	1	1	72	Done.bmp	370051	mission	17803	Ready2.bmp	M1	Blocks	37	223377		0	0	1000	1	38	37	37	.	.	disp	List3	221874	5	1119	222993	spt@
Repetition_current	2380	1	"<?xml version=""1.0""?>\n<Clock xmlns:dt=""urn:schemas-microsoft-com:datatypes""><Description dt:dt=""string"">E-Prime Primary Realtime Clock</Description><StartTime><Timestamp dt:dt=""int"">0</Timestamp><DateUtc dt:dt=""string"">2010-10-19T19:13:02Z</DateUtc></StartTime><FrequencyChanges><FrequencyChange><Frequency dt:dt=""r8"">2793150000</Frequency><Timestamp dt:dt=""r8"">1.55659376618066E+15</Timestamp><Current dt:dt=""r8"">0</Current><DateUtc dt:dt=""string"">2010-10-19T19:13:02Z</DateUtc></FrequencyChange></FrequencyChanges></Clock>\n"	10/19/10 14:13	59.87	1	-953055640	10/19/10	14:13:02	7:13:02 PM	1	1	1	1	72	Done.bmp	370051	mission	17803	Ready2.bmp	M1	Blocks	38	225866		0	0	2100	1	39	38	38	.	.	disp	List3	224363	5	877	225240	rcd@
Repetition_current	2380	1	"<?xml version=""1.0""?>\n<Clock xmlns:dt=""urn:schemas-microsoft-com:datatypes""><Description dt:dt=""string"">E-Prime Primary Realtime Clock</Description><StartTime><Timestamp dt:dt=""int"">0</Timestamp><DateUtc dt:dt=""string"">2010-10-19T19:13:02Z</DateUtc></StartTime><FrequencyChanges><FrequencyChange><Frequency dt:dt=""r8"">2793150000</Frequency><Timestamp dt:dt=""r8"">1.55659376618066E+15</Timestamp><Current dt:dt=""r8"">0</Current><DateUtc dt:dt=""string"">2010-10-19T19:13:02Z</DateUtc></FrequencyChange></FrequencyChanges></Clock>\n"	10/19/10 14:13	59.87	1	-953055640	10/19/10	14:13:02	7:13:02 PM	1	1	1	1	72	Done.bmp	370051	mission	17803	Ready2.bmp	M1	Blocks	39	229474		0	0	1000	1	40	39	39	.	.	disp	List3	227971	5	933	228904	zood@
Repetition_current	2380	1	"<?xml version=""1.0""?>\n<Clock xmlns:dt=""urn:schemas-microsoft-com:datatypes""><Description dt:dt=""string"">E-Prime Primary Realtime Clock</Description><StartTime><Timestamp dt:dt=""int"">0</Timestamp><DateUtc dt:dt=""string"">2010-10-19T19:13:02Z</DateUtc></StartTime><FrequencyChanges><FrequencyChange><Frequency dt:dt=""r8"">2793150000</Frequency><Timestamp dt:dt=""r8"">1.55659376618066E+15</Timestamp><Current dt:dt=""r8"">0</Current><DateUtc dt:dt=""string"">2010-10-19T19:13:02Z</DateUtc></FrequencyChange></FrequencyChanges></Clock>\n"	10/19/10 14:13	59.87	1	-953055640	10/19/10	14:13:02	7:13:02 PM	1	1	1	1	72	Done.bmp	370051	mission	17803	Ready2.bmp	M1	Blocks	40	231963		0	0	1900	1	41	40	40	.	.	disp	List3	230476	6	740	231216	wrong@
Repetition_current	2380	1	"<?xml version=""1.0""?>\n<Clock xmlns:dt=""urn:schemas-microsoft-com:datatypes""><Description dt:dt=""string"">E-Prime Primary Realtime Clock</Description><StartTime><Timestamp dt:dt=""int"">0</Timestamp><DateUtc dt:dt=""string"">2010-10-19T19:13:02Z</DateUtc></StartTime><FrequencyChanges><FrequencyChange><Frequency dt:dt=""r8"">2793150000</Frequency><Timestamp dt:dt=""r8"">1.55659376618066E+15</Timestamp><Current dt:dt=""r8"">0</Current><DateUtc dt:dt=""string"">2010-10-19T19:13:02Z</DateUtc></FrequencyChange></FrequencyChanges></Clock>\n"	10/19/10 14:13	59.87	1	-953055640	10/19/10	14:13:02	7:13:02 PM	1	1	1	1	72	Done.bmp	370051	mission	17803	Ready2.bmp	M1	Blocks	41	235370		0	0	3000	1	42	41	41	.	.	disp	List3	233867	6	573	234440	floor@
Repetition_current	2380	1	"<?xml version=""1.0""?>\n<Clock xmlns:dt=""urn:schemas-microsoft-com:datatypes""><Description dt:dt=""string"">E-Prime Primary Realtime Clock</Description><StartTime><Timestamp dt:dt=""int"">0</Timestamp><DateUtc dt:dt=""string"">2010-10-19T19:13:02Z</DateUtc></StartTime><FrequencyChanges><FrequencyChange><Frequency dt:dt=""r8"">2793150000</Frequency><Timestamp dt:dt=""r8"">1.55659376618066E+15</Timestamp><Current dt:dt=""r8"">0</Current><DateUtc dt:dt=""string"">2010-10-19T19:13:02Z</DateUtc></FrequencyChange></FrequencyChanges></Clock>\n"	10/19/10 14:13	59.87	1	-953055640	10/19/10	14:13:02	7:13:02 PM	1	1	1	1	72	Done.bmp	370051	mission	17803	Ready2.bmp	M1	Blocks	42	239863		0	0	1400	1	43	42	42	.	.	disp	List3	238376	6	465	238841	foot@
Repetition_current	2380	1	"<?xml version=""1.0""?>\n<Clock xmlns:dt=""urn:schemas-microsoft-com:datatypes""><Description dt:dt=""string"">E-Prime Primary Realtime Clock</Description><StartTime><Timestamp dt:dt=""int"">0</Timestamp><DateUtc dt:dt=""string"">2010-10-19T19:13:02Z</DateUtc></StartTime><FrequencyChanges><FrequencyChange><Frequency dt:dt=""r8"">2793150000</Frequency><Timestamp dt:dt=""r8"">1.55659376618066E+15</Timestamp><Current dt:dt=""r8"">0</Current><DateUtc dt:dt=""string"">2010-10-19T19:13:02Z</DateUtc></FrequencyChange></FrequencyChanges></Clock>\n"	10/19/10 14:13	59.87	1	-953055640	10/19/10	14:13:02	7:13:02 PM	1	1	1	1	72	Done.bmp	370051	mission	17803	Ready2.bmp	M1	Blocks	43	242769		0	0	1100	1	44	43	43	.	.	disp	List3	241266	6	606	241872	wait@
Repetition_current	2380	1	"<?xml version=""1.0""?>\n<Clock xmlns:dt=""urn:schemas-microsoft-com:datatypes""><Description dt:dt=""string"">E-Prime Primary Realtime Clock</Description><StartTime><Timestamp dt:dt=""int"">0</Timestamp><DateUtc dt:dt=""string"">2010-10-19T19:13:02Z</DateUtc></StartTime><FrequencyChanges><FrequencyChange><Frequency dt:dt=""r8"">2793150000</Frequency><Timestamp dt:dt=""r8"">1.55659376618066E+15</Timestamp><Current dt:dt=""r8"">0</Current><DateUtc dt:dt=""string"">2010-10-19T19:13:02Z</DateUtc></FrequencyChange></FrequencyChanges></Clock>\n"	10/19/10 14:13	59.87	1	-953055640	10/19/10	14:13:02	7:13:02 PM	1	1	1	1	72	Done.bmp	370051	mission	17803	Ready2.bmp	M1	Blocks	44	245375		0	0	1800	1	45	44	44	.	.	disp	List3	243872	5	744	244616	trat@
Repetition_current	2380	1	"<?xml version=""1.0""?>\n<Clock xmlns:dt=""urn:schemas-microsoft-com:datatypes""><Description dt:dt=""string"">E-Prime Primary Realtime Clock</Description><StartTime><Timestamp dt:dt=""int"">0</Timestamp><DateUtc dt:dt=""string"">2010-10-19T19:13:02Z</DateUtc></StartTime><FrequencyChanges><FrequencyChange><Frequency dt:dt=""r8"">2793150000</Frequency><Timestamp dt:dt=""r8"">1.55659376618066E+15</Timestamp><Current dt:dt=""r8"">0</Current><DateUtc dt:dt=""string"">2010-10-19T19:13:02Z</DateUtc></FrequencyChange></FrequencyChanges></Clock>\n"	10/19/10 14:13	59.87	1	-953055640	10/19/10	14:13:02	7:13:02 PM	1	1	1	1	72	Done.bmp	370051	mission	17803	Ready2.bmp	M1	Blocks	45	248665		0	0	1900	1	46	45	45	.	.	disp	List3	247163	5	557	247720	kwpt@
Repetition_current	2380	1	"<?xml version=""1.0""?>\n<Clock xmlns:dt=""urn:schemas-microsoft-com:datatypes""><Description dt:dt=""string"">E-Prime Primary Realtime Clock</Description><StartTime><Timestamp dt:dt=""int"">0</Timestamp><DateUtc dt:dt=""string"">2010-10-19T19:13:02Z</DateUtc></StartTime><FrequencyChanges><FrequencyChange><Frequency dt:dt=""r8"">2793150000</Frequency><Timestamp dt:dt=""r8"">1.55659376618066E+15</Timestamp><Current dt:dt=""r8"">0</Current><DateUtc dt:dt=""string"">2010-10-19T19:13:02Z</DateUtc></FrequencyChange></FrequencyChanges></Clock>\n"	10/19/10 14:13	59.87	1	-953055640	10/19/10	14:13:02	7:13:02 PM	1	1	1	1	72	Done.bmp	370051	mission	17803	Ready2.bmp	M1	Blocks	46	252073		0	0	3000	1	47	46	46	.	.	disp	List3	250570	5	614	251184	mdp@
Repetition_current	2380	1	"<?xml version=""1.0""?>\n<Clock xmlns:dt=""urn:schemas-microsoft-com:datatypes""><Description dt:dt=""string"">E-Prime Primary Realtime Clock</Description><StartTime><Timestamp dt:dt=""int"">0</Timestamp><DateUtc dt:dt=""string"">2010-10-19T19:13:02Z</DateUtc></StartTime><FrequencyChanges><FrequencyChange><Frequency dt:dt=""r8"">2793150000</Frequency><Timestamp dt:dt=""r8"">1.55659376618066E+15</Timestamp><Current dt:dt=""r8"">0</Current><DateUtc dt:dt=""string"">2010-10-19T19:13:02Z</DateUtc></FrequencyChange></FrequencyChanges></Clock>\n"	10/19/10 14:13	59.87	1	-953055640	10/19/10	14:13:02	7:13:02 PM	1	1	1	1	72	Done.bmp	370051	mission	17803	Ready2.bmp	M1	Blocks	47	256566		0	0	2800	1	48	47	47	.	.	disp	List3	255063	6	881	255944	green@
Repetition_current	2380	1	"<?xml version=""1.0""?>\n<Clock xmlns:dt=""urn:schemas-microsoft-com:datatypes""><Description dt:dt=""string"">E-Prime Primary Realtime Clock</Description><StartTime><Timestamp dt:dt=""int"">0</Timestamp><DateUtc dt:dt=""string"">2010-10-19T19:13:02Z</DateUtc></StartTime><FrequencyChanges><FrequencyChange><Frequency dt:dt=""r8"">2793150000</Frequency><Timestamp dt:dt=""r8"">1.55659376618066E+15</Timestamp><Current dt:dt=""r8"">0</Current><DateUtc dt:dt=""string"">2010-10-19T19:13:02Z</DateUtc></FrequencyChange></FrequencyChanges></Clock>\n"	10/19/10 14:13	59.87	1	-953055640	10/19/10	14:13:02	7:13:02 PM	1	1	1	1	72	Done.bmp	370051	mission	17803	Ready2.bmp	M1	Blocks	48	260875		0	0	2100	1	49	48	48	.	.	disp	List3	259372	6	948	260320	horse@
Repetition_current	2380	1	"<?xml version=""1.0""?>\n<Clock xmlns:dt=""urn:schemas-microsoft-com:datatypes""><Description dt:dt=""string"">E-Prime Primary Realtime Clock</Description><StartTime><Timestamp dt:dt=""int"">0</Timestamp><DateUtc dt:dt=""string"">2010-10-19T19:13:02Z</DateUtc></StartTime><FrequencyChanges><FrequencyChange><Frequency dt:dt=""r8"">2793150000</Frequency><Timestamp dt:dt=""r8"">1.55659376618066E+15</Timestamp><Current dt:dt=""r8"">0</Current><DateUtc dt:dt=""string"">2010-10-19T19:13:02Z</DateUtc></FrequencyChange></FrequencyChanges></Clock>\n"	10/19/10 14:13	59.87	1	-953055640	10/19/10	14:13:02	7:13:02 PM	1	1	1	1	72	Done.bmp	370051	mission	17803	Ready2.bmp	M1	Blocks	49	264467		0	0	1800	1	50	49	49	.	.	disp	List3	262963	6	517	263480	hot@
Repetition_current	2380	1	"<?xml version=""1.0""?>\n<Clock xmlns:dt=""urn:schemas-microsoft-com:datatypes""><Description dt:dt=""string"">E-Prime Primary Realtime Clock</Description><StartTime><Timestamp dt:dt=""int"">0</Timestamp><DateUtc dt:dt=""string"">2010-10-19T19:13:02Z</DateUtc></StartTime><FrequencyChanges><FrequencyChange><Frequency dt:dt=""r8"">2793150000</Frequency><Timestamp dt:dt=""r8"">1.55659376618066E+15</Timestamp><Current dt:dt=""r8"">0</Current><DateUtc dt:dt=""string"">2010-10-19T19:13:02Z</DateUtc></FrequencyChange></FrequencyChanges></Clock>\n"	10/19/10 14:13	59.87	1	-953055640	10/19/10	14:13:02	7:13:02 PM	1	1	1	1	72	Done.bmp	370051	mission	17803	Ready2.bmp	M1	Blocks	50	267774		0	0	1000	1	51	50	50	.	.	disp	List3	266270	6	602	266872	late@
Repetition_current	2380	1	"<?xml version=""1.0""?>\n<Clock xmlns:dt=""urn:schemas-microsoft-com:datatypes""><Description dt:dt=""string"">E-Prime Primary Realtime Clock</Description><StartTime><Timestamp dt:dt=""int"">0</Timestamp><DateUtc dt:dt=""string"">2010-10-19T19:13:02Z</DateUtc></StartTime><FrequencyChanges><FrequencyChange><Frequency dt:dt=""r8"">2793150000</Frequency><Timestamp dt:dt=""r8"">1.55659376618066E+15</Timestamp><Current dt:dt=""r8"">0</Current><DateUtc dt:dt=""string"">2010-10-19T19:13:02Z</DateUtc></FrequencyChange></FrequencyChanges></Clock>\n"	10/19/10 14:13	59.87	1	-953055640	10/19/10	14:13:02	7:13:02 PM	1	1	1	1	72	Done.bmp	370051	mission	17803	Ready2.bmp	M1	Blocks	51	270263		0	0	3000	1	52	51	51	.	.	disp	List3	268776	6	736	269512	rest@
Repetition_current	2380	1	"<?xml version=""1.0""?>\n<Clock xmlns:dt=""urn:schemas-microsoft-com:datatypes""><Description dt:dt=""string"">E-Prime Primary Realtime Clock</Description><StartTime><Timestamp dt:dt=""int"">0</Timestamp><DateUtc dt:dt=""string"">2010-10-19T19:13:02Z</DateUtc></StartTime><FrequencyChanges><FrequencyChange><Frequency dt:dt=""r8"">2793150000</Frequency><Timestamp dt:dt=""r8"">1.55659376618066E+15</Timestamp><Current dt:dt=""r8"">0</Current><DateUtc dt:dt=""string"">2010-10-19T19:13:02Z</DateUtc></FrequencyChange></FrequencyChanges></Clock>\n"	10/19/10 14:13	59.87	1	-953055640	10/19/10	14:13:02	7:13:02 PM	1	1	1	1	72	Done.bmp	370051	mission	17803	Ready2.bmp	M1	Blocks	52	274772		0	0	2500	1	53	52	52	.	.	disp	List3	273269	6	571	273840	stay@
Repetition_current	2380	1	"<?xml version=""1.0""?>\n<Clock xmlns:dt=""urn:schemas-microsoft-com:datatypes""><Description dt:dt=""string"">E-Prime Primary Realtime Clock</Description><StartTime><Timestamp dt:dt=""int"">0</Timestamp><DateUtc dt:dt=""string"">2010-10-19T19:13:02Z</DateUtc></StartTime><FrequencyChanges><FrequencyChange><Frequency dt:dt=""r8"">2793150000</Frequency><Timestamp dt:dt=""r8"">1.55659376618066E+15</Timestamp><Current dt:dt=""r8"">0</Current><DateUtc dt:dt=""string"">2010-10-19T19:13:02Z</DateUtc></FrequencyChange></FrequencyChanges></Clock>\n"	10/19/10 14:13	59.87	1	-953055640	10/19/10	14:13:02	7:13:02 PM	1	1	1	1	72	Done.bmp	370051	mission	17803	Ready2.bmp	M1	Blocks	53	278764		0	0	1800	1	54	53	53	.	.	disp	List3	277277	5	666	277943	skib@
Repetition_current	2380	1	"<?xml version=""1.0""?>\n<Clock xmlns:dt=""urn:schemas-microsoft-com:datatypes""><Description dt:dt=""string"">E-Prime Primary Realtime Clock</Description><StartTime><Timestamp dt:dt=""int"">0</Timestamp><DateUtc dt:dt=""string"">2010-10-19T19:13:02Z</DateUtc></StartTime><FrequencyChanges><FrequencyChange><Frequency dt:dt=""r8"">2793150000</Frequency><Timestamp dt:dt=""r8"">1.55659376618066E+15</Timestamp><Current dt:dt=""r8"">0</Current><DateUtc dt:dt=""string"">2010-10-19T19:13:02Z</DateUtc></FrequencyChange></FrequencyChanges></Clock>\n"	10/19/10 14:13	59.87	1	-953055640	10/19/10	14:13:02	7:13:02 PM	1	1	1	1	72	Done.bmp	370051	mission	17803	Ready2.bmp	M1	Blocks	54	282071		0	0	2700	1	55	54	54	.	.	disp	List3	280568	5	735	281303	smy@
Repetition_current	2380	1	"<?xml version=""1.0""?>\n<Clock xmlns:dt=""urn:schemas-microsoft-com:datatypes""><Description dt:dt=""string"">E-Prime Primary Realtime Clock</Description><StartTime><Timestamp dt:dt=""int"">0</Timestamp><DateUtc dt:dt=""string"">2010-10-19T19:13:02Z</DateUtc></StartTime><FrequencyChanges><FrequencyChange><Frequency dt:dt=""r8"">2793150000</Frequency><Timestamp dt:dt=""r8"">1.55659376618066E+15</Timestamp><Current dt:dt=""r8"">0</Current><DateUtc dt:dt=""string"">2010-10-19T19:13:02Z</DateUtc></FrequencyChange></FrequencyChanges></Clock>\n"	10/19/10 14:13	59.87	1	-953055640	10/19/10	14:13:02	7:13:02 PM	1	1	1	1	72	Done.bmp	370051	mission	17803	Ready2.bmp	M1	Blocks	55	286264		0	0	3000	1	56	55	55	.	.	disp	List3	284777	5	662	285439	tey@
Repetition_current	2380	1	"<?xml version=""1.0""?>\n<Clock xmlns:dt=""urn:schemas-microsoft-com:datatypes""><Description dt:dt=""string"">E-Prime Primary Realtime Clock</Description><StartTime><Timestamp dt:dt=""int"">0</Timestamp><DateUtc dt:dt=""string"">2010-10-19T19:13:02Z</DateUtc></StartTime><FrequencyChanges><FrequencyChange><Frequency dt:dt=""r8"">2793150000</Frequency><Timestamp dt:dt=""r8"">1.55659376618066E+15</Timestamp><Current dt:dt=""r8"">0</Current><DateUtc dt:dt=""string"">2010-10-19T19:13:02Z</DateUtc></FrequencyChange></FrequencyChanges></Clock>\n"	10/19/10 14:13	59.87	1	-953055640	10/19/10	14:13:02	7:13:02 PM	1	1	1	1	72	Done.bmp	370051	mission	17803	Ready2.bmp	M1	Blocks	56	290773		0	0	1000	1	57	56	56	.	.	disp	List3	289270	5	553	289823	bhx@
Repetition_current	2380	1	"<?xml version=""1.0""?>\n<Clock xmlns:dt=""urn:schemas-microsoft-com:datatypes""><Description dt:dt=""string"">E-Prime Primary Realtime Clock</Description><StartTime><Timestamp dt:dt=""int"">0</Timestamp><DateUtc dt:dt=""string"">2010-10-19T19:13:02Z</DateUtc></StartTime><FrequencyChanges><FrequencyChange><Frequency dt:dt=""r8"">2793150000</Frequency><Timestamp dt:dt=""r8"">1.55659376618066E+15</Timestamp><Current dt:dt=""r8"">0</Current><DateUtc dt:dt=""string"">2010-10-19T19:13:02Z</DateUtc></FrequencyChange></FrequencyChanges></Clock>\n"	10/19/10 14:13	59.87	1	-953055640	10/19/10	14:13:02	7:13:02 PM	1	1	1	1	72	Done.bmp	370051	mission	17803	Ready2.bmp	M1	Blocks	57	293263		0	0	1700	1	58	57	57	.	.	disp	List3	291776	5	655	292431	hdrsp@
Repetition_current	2380	1	"<?xml version=""1.0""?>\n<Clock xmlns:dt=""urn:schemas-microsoft-com:datatypes""><Description dt:dt=""string"">E-Prime Primary Realtime Clock</Description><StartTime><Timestamp dt:dt=""int"">0</Timestamp><DateUtc dt:dt=""string"">2010-10-19T19:13:02Z</DateUtc></StartTime><FrequencyChanges><FrequencyChange><Frequency dt:dt=""r8"">2793150000</Frequency><Timestamp dt:dt=""r8"">1.55659376618066E+15</Timestamp><Current dt:dt=""r8"">0</Current><DateUtc dt:dt=""string"">2010-10-19T19:13:02Z</DateUtc></FrequencyChange></FrequencyChanges></Clock>\n"	10/19/10 14:13	59.87	1	-953055640	10/19/10	14:13:02	7:13:02 PM	1	1	1	1	72	Done.bmp	370051	mission	17803	Ready2.bmp	M1	Blocks	58	296469		0	0	2200	1	59	58	58	.	.	disp	List3	294966	5	577	295543	rzst@
Repetition_current	2380	1	"<?xml version=""1.0""?>\n<Clock xmlns:dt=""urn:schemas-microsoft-com:datatypes""><Description dt:dt=""string"">E-Prime Primary Realtime Clock</Description><StartTime><Timestamp dt:dt=""int"">0</Timestamp><DateUtc dt:dt=""string"">2010-10-19T19:13:02Z</DateUtc></StartTime><FrequencyChanges><FrequencyChange><Frequency dt:dt=""r8"">2793150000</Frequency><Timestamp dt:dt=""r8"">1.55659376618066E+15</Timestamp><Current dt:dt=""r8"">0</Current><DateUtc dt:dt=""string"">2010-10-19T19:13:02Z</DateUtc></FrequencyChange></FrequencyChanges></Clock>\n"	10/19/10 14:13	59.87	1	-953055640	10/19/10	14:13:02	7:13:02 PM	1	1	1	1	72	Done.bmp	370051	mission	17803	Ready2.bmp	M1	Blocks	59	300177		0	0	2400	1	60	59	59	.	.	disp	List3	298674	6	757	299431	line@
Repetition_current	2380	1	"<?xml version=""1.0""?>\n<Clock xmlns:dt=""urn:schemas-microsoft-com:datatypes""><Description dt:dt=""string"">E-Prime Primary Realtime Clock</Description><StartTime><Timestamp dt:dt=""int"">0</Timestamp><DateUtc dt:dt=""string"">2010-10-19T19:13:02Z</DateUtc></StartTime><FrequencyChanges><FrequencyChange><Frequency dt:dt=""r8"">2793150000</Frequency><Timestamp dt:dt=""r8"">1.55659376618066E+15</Timestamp><Current dt:dt=""r8"">0</Current><DateUtc dt:dt=""string"">2010-10-19T19:13:02Z</DateUtc></FrequencyChange></FrequencyChanges></Clock>\n"	10/19/10 14:13	59.87	1	-953055640	10/19/10	14:13:02	7:13:02 PM	1	1	1	1	72	Done.bmp	370051	mission	17803	Ready2.bmp	M1	Blocks	60	304069		0	0	11800	1	61	60	60	.	.	disp	List3	302566	6	513	303079	moon@
Repetition_current	2380	1	"<?xml version=""1.0""?>\n<Clock xmlns:dt=""urn:schemas-microsoft-com:datatypes""><Description dt:dt=""string"">E-Prime Primary Realtime Clock</Description><StartTime><Timestamp dt:dt=""int"">0</Timestamp><DateUtc dt:dt=""string"">2010-10-19T19:13:02Z</DateUtc></StartTime><FrequencyChanges><FrequencyChange><Frequency dt:dt=""r8"">2793150000</Frequency><Timestamp dt:dt=""r8"">1.55659376618066E+15</Timestamp><Current dt:dt=""r8"">0</Current><DateUtc dt:dt=""string"">2010-10-19T19:13:02Z</DateUtc></FrequencyChange></FrequencyChanges></Clock>\n"	10/19/10 14:13	59.87	1	-953055640	10/19/10	14:13:02	7:13:02 PM	1	1	1	1	72	Done.bmp	370051	mission	17803	Ready2.bmp	M1	Blocks	61	317364		0	0	3000	1	62	61	61	.	.	disp	List3	315878	6	873	316751	rain@
Repetition_current	2380	1	"<?xml version=""1.0""?>\n<Clock xmlns:dt=""urn:schemas-microsoft-com:datatypes""><Description dt:dt=""string"">E-Prime Primary Realtime Clock</Description><StartTime><Timestamp dt:dt=""int"">0</Timestamp><DateUtc dt:dt=""string"">2010-10-19T19:13:02Z</DateUtc></StartTime><FrequencyChanges><FrequencyChange><Frequency dt:dt=""r8"">2793150000</Frequency><Timestamp dt:dt=""r8"">1.55659376618066E+15</Timestamp><Current dt:dt=""r8"">0</Current><DateUtc dt:dt=""string"">2010-10-19T19:13:02Z</DateUtc></FrequencyChange></FrequencyChanges></Clock>\n"	10/19/10 14:13	59.87	1	-953055640	10/19/10	14:13:02	7:13:02 PM	1	1	1	1	72	Done.bmp	370051	mission	17803	Ready2.bmp	M1	Blocks	62	321874		0	0	2800	1	63	62	62	.	.	disp	List3	320371	5	899	321270	stnm@
Repetition_current	2380	1	"<?xml version=""1.0""?>\n<Clock xmlns:dt=""urn:schemas-microsoft-com:datatypes""><Description dt:dt=""string"">E-Prime Primary Realtime Clock</Description><StartTime><Timestamp dt:dt=""int"">0</Timestamp><DateUtc dt:dt=""string"">2010-10-19T19:13:02Z</DateUtc></StartTime><FrequencyChanges><FrequencyChange><Frequency dt:dt=""r8"">2793150000</Frequency><Timestamp dt:dt=""r8"">1.55659376618066E+15</Timestamp><Current dt:dt=""r8"">0</Current><DateUtc dt:dt=""string"">2010-10-19T19:13:02Z</DateUtc></FrequencyChange></FrequencyChanges></Clock>\n"	10/19/10 14:13	59.87	1	-953055640	10/19/10	14:13:02	7:13:02 PM	1	1	1	1	72	Done.bmp	370051	mission	17803	Ready2.bmp	M1	Blocks	63	326167		0	0	1800	1	64	63	63	.	.	disp	List3	324664	5	590	325254	sthnr@
Repetition_current	2380	1	"<?xml version=""1.0""?>\n<Clock xmlns:dt=""urn:schemas-microsoft-com:datatypes""><Description dt:dt=""string"">E-Prime Primary Realtime Clock</Description><StartTime><Timestamp dt:dt=""int"">0</Timestamp><DateUtc dt:dt=""string"">2010-10-19T19:13:02Z</DateUtc></StartTime><FrequencyChanges><FrequencyChange><Frequency dt:dt=""r8"">2793150000</Frequency><Timestamp dt:dt=""r8"">1.55659376618066E+15</Timestamp><Current dt:dt=""r8"">0</Current><DateUtc dt:dt=""string"">2010-10-19T19:13:02Z</DateUtc></FrequencyChange></FrequencyChanges></Clock>\n"	10/19/10 14:13	59.87	1	-953055640	10/19/10	14:13:02	7:13:02 PM	1	1	1	1	72	Done.bmp	370051	mission	17803	Ready2.bmp	M1	Blocks	64	329474		0	0	2500	1	65	64	64	.	.	disp	List3	327971	5	675	328646	hct@
Repetition_current	2380	1	"<?xml version=""1.0""?>\n<Clock xmlns:dt=""urn:schemas-microsoft-com:datatypes""><Description dt:dt=""string"">E-Prime Primary Realtime Clock</Description><StartTime><Timestamp dt:dt=""int"">0</Timestamp><DateUtc dt:dt=""string"">2010-10-19T19:13:02Z</DateUtc></StartTime><FrequencyChanges><FrequencyChange><Frequency dt:dt=""r8"">2793150000</Frequency><Timestamp dt:dt=""r8"">1.55659376618066E+15</Timestamp><Current dt:dt=""r8"">0</Current><DateUtc dt:dt=""string"">2010-10-19T19:13:02Z</DateUtc></FrequencyChange></FrequencyChanges></Clock>\n"	10/19/10 14:13	59.87	1	-953055640	10/19/10	14:13:02	7:13:02 PM	1	1	1	1	72	Done.bmp	370051	mission	17803	Ready2.bmp	M1	Blocks	65	333468		0	0	2200	1	66	65	65	.	.	disp	List3	331963	6	603	332566	wish@
Repetition_current	2380	1	"<?xml version=""1.0""?>\n<Clock xmlns:dt=""urn:schemas-microsoft-com:datatypes""><Description dt:dt=""string"">E-Prime Primary Realtime Clock</Description><StartTime><Timestamp dt:dt=""int"">0</Timestamp><DateUtc dt:dt=""string"">2010-10-19T19:13:02Z</DateUtc></StartTime><FrequencyChanges><FrequencyChange><Frequency dt:dt=""r8"">2793150000</Frequency><Timestamp dt:dt=""r8"">1.55659376618066E+15</Timestamp><Current dt:dt=""r8"">0</Current><DateUtc dt:dt=""string"">2010-10-19T19:13:02Z</DateUtc></FrequencyChange></FrequencyChanges></Clock>\n"	10/19/10 14:13	59.87	1	-953055640	10/19/10	14:13:02	7:13:02 PM	1	1	1	1	72	Done.bmp	370051	mission	17803	Ready2.bmp	M1	Blocks	66	337174		0	0	1300	1	67	66	66	.	.	disp	List3	335671	6	583	336254	red@
Repetition_current	2380	1	"<?xml version=""1.0""?>\n<Clock xmlns:dt=""urn:schemas-microsoft-com:datatypes""><Description dt:dt=""string"">E-Prime Primary Realtime Clock</Description><StartTime><Timestamp dt:dt=""int"">0</Timestamp><DateUtc dt:dt=""string"">2010-10-19T19:13:02Z</DateUtc></StartTime><FrequencyChanges><FrequencyChange><Frequency dt:dt=""r8"">2793150000</Frequency><Timestamp dt:dt=""r8"">1.55659376618066E+15</Timestamp><Current dt:dt=""r8"">0</Current><DateUtc dt:dt=""string"">2010-10-19T19:13:02Z</DateUtc></FrequencyChange></FrequencyChanges></Clock>\n"	10/19/10 14:13	59.87	1	-953055640	10/19/10	14:13:02	7:13:02 PM	1	1	1	1	72	Done.bmp	370051	mission	17803	Ready2.bmp	M1	Blocks	67	339963		0	0	1000	1	68	67	67	.	.	disp	List3	338477	6	593	339070	road@
Repetition_current	2380	1	"<?xml version=""1.0""?>\n<Clock xmlns:dt=""urn:schemas-microsoft-com:datatypes""><Description dt:dt=""string"">E-Prime Primary Realtime Clock</Description><StartTime><Timestamp dt:dt=""int"">0</Timestamp><DateUtc dt:dt=""string"">2010-10-19T19:13:02Z</DateUtc></StartTime><FrequencyChanges><FrequencyChange><Frequency dt:dt=""r8"">2793150000</Frequency><Timestamp dt:dt=""r8"">1.55659376618066E+15</Timestamp><Current dt:dt=""r8"">0</Current><DateUtc dt:dt=""string"">2010-10-19T19:13:02Z</DateUtc></FrequencyChange></FrequencyChanges></Clock>\n"	10/19/10 14:13	59.87	1	-953055640	10/19/10	14:13:02	7:13:02 PM	1	1	1	1	72	Done.bmp	370051	mission	17803	Ready2.bmp	M1	Blocks	68	342469		0	0	1200	1	69	68	68	.	.	disp	List3	340966	5	944	341910	gorn@
Repetition_current	2380	1	"<?xml version=""1.0""?>\n<Clock xmlns:dt=""urn:schemas-microsoft-com:datatypes""><Description dt:dt=""string"">E-Prime Primary Realtime Clock</Description><StartTime><Timestamp dt:dt=""int"">0</Timestamp><DateUtc dt:dt=""string"">2010-10-19T19:13:02Z</DateUtc></StartTime><FrequencyChanges><FrequencyChange><Frequency dt:dt=""r8"">2793150000</Frequency><Timestamp dt:dt=""r8"">1.55659376618066E+15</Timestamp><Current dt:dt=""r8"">0</Current><DateUtc dt:dt=""string"">2010-10-19T19:13:02Z</DateUtc></FrequencyChange></FrequencyChanges></Clock>\n"	10/19/10 14:13	59.87	1	-953055640	10/19/10	14:13:02	7:13:02 PM	1	1	1	1	72	Done.bmp	370051	mission	17803	Ready2.bmp	M1	Blocks	69	345175		0	0	1400	1	70	69	69	.	.	disp	List3	343672	5	846	344518	heen@
Repetition_current	2380	1	"<?xml version=""1.0""?>\n<Clock xmlns:dt=""urn:schemas-microsoft-com:datatypes""><Description dt:dt=""string"">E-Prime Primary Realtime Clock</Description><StartTime><Timestamp dt:dt=""int"">0</Timestamp><DateUtc dt:dt=""string"">2010-10-19T19:13:02Z</DateUtc></StartTime><FrequencyChanges><FrequencyChange><Frequency dt:dt=""r8"">2793150000</Frequency><Timestamp dt:dt=""r8"">1.55659376618066E+15</Timestamp><Current dt:dt=""r8"">0</Current><DateUtc dt:dt=""string"">2010-10-19T19:13:02Z</DateUtc></FrequencyChange></FrequencyChanges></Clock>\n"	10/19/10 14:13	59.87	1	-953055640	10/19/10	14:13:02	7:13:02 PM	1	1	1	1	72	Done.bmp	370051	mission	17803	Ready2.bmp	M1	Blocks	70	348064		0	0	2300	1	71	70	70	.	.	disp	List3	346578	6	1116	347694	hoad@
Repetition_current	2380	1	"<?xml version=""1.0""?>\n<Clock xmlns:dt=""urn:schemas-microsoft-com:datatypes""><Description dt:dt=""string"">E-Prime Primary Realtime Clock</Description><StartTime><Timestamp dt:dt=""int"">0</Timestamp><DateUtc dt:dt=""string"">2010-10-19T19:13:02Z</DateUtc></StartTime><FrequencyChanges><FrequencyChange><Frequency dt:dt=""r8"">2793150000</Frequency><Timestamp dt:dt=""r8"">1.55659376618066E+15</Timestamp><Current dt:dt=""r8"">0</Current><DateUtc dt:dt=""string"">2010-10-19T19:13:02Z</DateUtc></FrequencyChange></FrequencyChanges></Clock>\n"	10/19/10 14:13	59.87	1	-953055640	10/19/10	14:13:02	7:13:02 PM	1	1	1	1	72	Done.bmp	370051	mission	17803	Ready2.bmp	M1	Blocks	71	351873		0	0	2000	1	72	71	71	.	.	disp	List3	350369	5	797	351166	svnt@
Repetition_current	2380	1	"<?xml version=""1.0""?>\n<Clock xmlns:dt=""urn:schemas-microsoft-com:datatypes""><Description dt:dt=""string"">E-Prime Primary Realtime Clock</Description><StartTime><Timestamp dt:dt=""int"">0</Timestamp><DateUtc dt:dt=""string"">2010-10-19T19:13:02Z</DateUtc></StartTime><FrequencyChanges><FrequencyChange><Frequency dt:dt=""r8"">2793150000</Frequency><Timestamp dt:dt=""r8"">1.55659376618066E+15</Timestamp><Current dt:dt=""r8"">0</Current><DateUtc dt:dt=""string"">2010-10-19T19:13:02Z</DateUtc></FrequencyChange></FrequencyChanges></Clock>\n"	10/19/10 14:13	59.87	1	-953055640	10/19/10	14:13:02	7:13:02 PM	1	1	1	1	72	Done.bmp	370051	mission	17803	Ready2.bmp	M1	Blocks	72	355364		0	0	1000	1	73	72	72	.	.	disp	List3	353877	5	777	354654	mlxth@
Repetition_current	2380	1	"<?xml version=""1.0""?>\n<Clock xmlns:dt=""urn:schemas-microsoft-com:datatypes""><Description dt:dt=""string"">E-Prime Primary Realtime Clock</Description><StartTime><Timestamp dt:dt=""int"">0</Timestamp><DateUtc dt:dt=""string"">2010-10-19T19:13:02Z</DateUtc></StartTime><FrequencyChanges><FrequencyChange><Frequency dt:dt=""r8"">2793150000</Frequency><Timestamp dt:dt=""r8"">1.55659376618066E+15</Timestamp><Current dt:dt=""r8"">0</Current><DateUtc dt:dt=""string"">2010-10-19T19:13:02Z</DateUtc></FrequencyChange></FrequencyChanges></Clock>\n"	10/19/10 14:13	59.87	1	-953055640	10/19/10	14:13:02	7:13:02 PM	2	2	1	2	72	Done.bmp	718444	mission	371187	Ready2.bmp	M2	Blocks	1	408145		0	0	3000	1	75	73	.	1	.	disp	List3	406658	6	843	407501	rock@
Repetition_current	2380	1	"<?xml version=""1.0""?>\n<Clock xmlns:dt=""urn:schemas-microsoft-com:datatypes""><Description dt:dt=""string"">E-Prime Primary Realtime Clock</Description><StartTime><Timestamp dt:dt=""int"">0</Timestamp><DateUtc dt:dt=""string"">2010-10-19T19:13:02Z</DateUtc></StartTime><FrequencyChanges><FrequencyChange><Frequency dt:dt=""r8"">2793150000</Frequency><Timestamp dt:dt=""r8"">1.55659376618066E+15</Timestamp><Current dt:dt=""r8"">0</Current><DateUtc dt:dt=""string"">2010-10-19T19:13:02Z</DateUtc></FrequencyChange></FrequencyChanges></Clock>\n"	10/19/10 14:13	59.87	1	-953055640	10/19/10	14:13:02	7:13:02 PM	2	2	1	2	72	Done.bmp	718444	mission	371187	Ready2.bmp	M2	Blocks	2	412654		0	0	2500	1	76	74	.	2	.	disp	List3	411151	6	606	411757	ship@
Repetition_current	2380	1	"<?xml version=""1.0""?>\n<Clock xmlns:dt=""urn:schemas-microsoft-com:datatypes""><Description dt:dt=""string"">E-Prime Primary Realtime Clock</Description><StartTime><Timestamp dt:dt=""int"">0</Timestamp><DateUtc dt:dt=""string"">2010-10-19T19:13:02Z</DateUtc></StartTime><FrequencyChanges><FrequencyChange><Frequency dt:dt=""r8"">2793150000</Frequency><Timestamp dt:dt=""r8"">1.55659376618066E+15</Timestamp><Current dt:dt=""r8"">0</Current><DateUtc dt:dt=""string"">2010-10-19T19:13:02Z</DateUtc></FrequencyChange></FrequencyChanges></Clock>\n"	10/19/10 14:13	59.87	1	-953055640	10/19/10	14:13:02	7:13:02 PM	2	2	1	2	72	Done.bmp	718444	mission	371187	Ready2.bmp	M2	Blocks	3	416646		0	0	1800	1	77	75	.	3	.	disp	List3	415144	6	773	415917	sit@
Repetition_current	2380	1	"<?xml version=""1.0""?>\n<Clock xmlns:dt=""urn:schemas-microsoft-com:datatypes""><Description dt:dt=""string"">E-Prime Primary Realtime Clock</Description><StartTime><Timestamp dt:dt=""int"">0</Timestamp><DateUtc dt:dt=""string"">2010-10-19T19:13:02Z</DateUtc></StartTime><FrequencyChanges><FrequencyChange><Frequency dt:dt=""r8"">2793150000</Frequency><Timestamp dt:dt=""r8"">1.55659376618066E+15</Timestamp><Current dt:dt=""r8"">0</Current><DateUtc dt:dt=""string"">2010-10-19T19:13:02Z</DateUtc></FrequencyChange></FrequencyChanges></Clock>\n"	10/19/10 14:13	59.87	1	-953055640	10/19/10	14:13:02	7:13:02 PM	2	2	1	2	72	Done.bmp	718444	mission	371187	Ready2.bmp	M2	Blocks	4	419954		0	0	2700	1	78	76	.	4	.	disp	List3	418450	6	979	419429	buy@
Repetition_current	2380	1	"<?xml version=""1.0""?>\n<Clock xmlns:dt=""urn:schemas-microsoft-com:datatypes""><Description dt:dt=""string"">E-Prime Primary Realtime Clock</Description><StartTime><Timestamp dt:dt=""int"">0</Timestamp><DateUtc dt:dt=""string"">2010-10-19T19:13:02Z</DateUtc></StartTime><FrequencyChanges><FrequencyChange><Frequency dt:dt=""r8"">2793150000</Frequency><Timestamp dt:dt=""r8"">1.55659376618066E+15</Timestamp><Current dt:dt=""r8"">0</Current><DateUtc dt:dt=""string"">2010-10-19T19:13:02Z</DateUtc></FrequencyChange></FrequencyChanges></Clock>\n"	10/19/10 14:13	59.87	1	-953055640	10/19/10	14:13:02	7:13:02 PM	2	2	1	2	72	Done.bmp	718444	mission	371187	Ready2.bmp	M2	Blocks	5	424146		0	0	3000	1	79	77	.	5	.	disp	List3	422644	6	624	423268	care@
Repetition_current	2380	1	"<?xml version=""1.0""?>\n<Clock xmlns:dt=""urn:schemas-microsoft-com:datatypes""><Description dt:dt=""string"">E-Prime Primary Realtime Clock</Description><StartTime><Timestamp dt:dt=""int"">0</Timestamp><DateUtc dt:dt=""string"">2010-10-19T19:13:02Z</DateUtc></StartTime><FrequencyChanges><FrequencyChange><Frequency dt:dt=""r8"">2793150000</Frequency><Timestamp dt:dt=""r8"">1.55659376618066E+15</Timestamp><Current dt:dt=""r8"">0</Current><DateUtc dt:dt=""string"">2010-10-19T19:13:02Z</DateUtc></FrequencyChange></FrequencyChanges></Clock>\n"	10/19/10 14:13	59.87	1	-953055640	10/19/10	14:13:02	7:13:02 PM	2	2	1	2	72	Done.bmp	718444	mission	371187	Ready2.bmp	M2	Blocks	6	428656		0	0	1000	1	80	78	.	6	.	disp	List3	427153	6	715	427868	feel@
Repetition_current	2380	1	"<?xml version=""1.0""?>\n<Clock xmlns:dt=""urn:schemas-microsoft-com:datatypes""><Description dt:dt=""string"">E-Prime Primary Realtime Clock</Description><StartTime><Timestamp dt:dt=""int"">0</Timestamp><DateUtc dt:dt=""string"">2010-10-19T19:13:02Z</DateUtc></StartTime><FrequencyChanges><FrequencyChange><Frequency dt:dt=""r8"">2793150000</Frequency><Timestamp dt:dt=""r8"">1.55659376618066E+15</Timestamp><Current dt:dt=""r8"">0</Current><DateUtc dt:dt=""string"">2010-10-19T19:13:02Z</DateUtc></FrequencyChange></FrequencyChanges></Clock>\n"	10/19/10 14:13	59.87	1	-953055640	10/19/10	14:13:02	7:13:02 PM	2	2	1	2	72	Done.bmp	718444	mission	371187	Ready2.bmp	M2	Blocks	7	431145		0	0	1700	1	81	79	.	7	.	disp	List3	429658	5	939	430597	brong@
Repetition_current	2380	1	"<?xml version=""1.0""?>\n<Clock xmlns:dt=""urn:schemas-microsoft-com:datatypes""><Description dt:dt=""string"">E-Prime Primary Realtime Clock</Description><StartTime><Timestamp dt:dt=""int"">0</Timestamp><DateUtc dt:dt=""string"">2010-10-19T19:13:02Z</DateUtc></StartTime><FrequencyChanges><FrequencyChange><Frequency dt:dt=""r8"">2793150000</Frequency><Timestamp dt:dt=""r8"">1.55659376618066E+15</Timestamp><Current dt:dt=""r8"">0</Current><DateUtc dt:dt=""string"">2010-10-19T19:13:02Z</DateUtc></FrequencyChange></FrequencyChanges></Clock>\n"	10/19/10 14:13	59.87	1	-953055640	10/19/10	14:13:02	7:13:02 PM	2	2	1	2	72	Done.bmp	718444	mission	371187	Ready2.bmp	M2	Blocks	8	434352		0	0	2200	1	82	80	.	8	.	disp	List3	432849	5	947	433796	doil@
Repetition_current	2380	1	"<?xml version=""1.0""?>\n<Clock xmlns:dt=""urn:schemas-microsoft-com:datatypes""><Description dt:dt=""string"">E-Prime Primary Realtime Clock</Description><StartTime><Timestamp dt:dt=""int"">0</Timestamp><DateUtc dt:dt=""string"">2010-10-19T19:13:02Z</DateUtc></StartTime><FrequencyChanges><FrequencyChange><Frequency dt:dt=""r8"">2793150000</Frequency><Timestamp dt:dt=""r8"">1.55659376618066E+15</Timestamp><Current dt:dt=""r8"">0</Current><DateUtc dt:dt=""string"">2010-10-19T19:13:02Z</DateUtc></FrequencyChange></FrequencyChanges></Clock>\n"	10/19/10 14:13	59.87	1	-953055640	10/19/10	14:13:02	7:13:02 PM	2	2	1	2	72	Done.bmp	718444	mission	371187	Ready2.bmp	M2	Blocks	9	438044		0	0	2400	1	83	81	.	9	.	disp	List3	436556	5	680	437236	fomp@
Repetition_current	2380	1	"<?xml version=""1.0""?>\n<Clock xmlns:dt=""urn:schemas-microsoft-com:datatypes""><Description dt:dt=""string"">E-Prime Primary Realtime Clock</Description><StartTime><Timestamp dt:dt=""int"">0</Timestamp><DateUtc dt:dt=""string"">2010-10-19T19:13:02Z</DateUtc></StartTime><FrequencyChanges><FrequencyChange><Frequency dt:dt=""r8"">2793150000</Frequency><Timestamp dt:dt=""r8"">1.55659376618066E+15</Timestamp><Current dt:dt=""r8"">0</Current><DateUtc dt:dt=""string"">2010-10-19T19:13:02Z</DateUtc></FrequencyChange></FrequencyChanges></Clock>\n"	10/19/10 14:13	59.87	1	-953055640	10/19/10	14:13:02	7:13:02 PM	2	2	1	2	72	Done.bmp	718444	mission	371187	Ready2.bmp	M2	Blocks	10	441951		0	0	11800	1	84	82	.	10	.	disp	List3	440448	5	556	441004	dwql@
Repetition_current	2380	1	"<?xml version=""1.0""?>\n<Clock xmlns:dt=""urn:schemas-microsoft-com:datatypes""><Description dt:dt=""string"">E-Prime Primary Realtime Clock</Description><StartTime><Timestamp dt:dt=""int"">0</Timestamp><DateUtc dt:dt=""string"">2010-10-19T19:13:02Z</DateUtc></StartTime><FrequencyChanges><FrequencyChange><Frequency dt:dt=""r8"">2793150000</Frequency><Timestamp dt:dt=""r8"">1.55659376618066E+15</Timestamp><Current dt:dt=""r8"">0</Current><DateUtc dt:dt=""string"">2010-10-19T19:13:02Z</DateUtc></FrequencyChange></FrequencyChanges></Clock>\n"	10/19/10 14:13	59.87	1	-953055640	10/19/10	14:13:02	7:13:02 PM	2	2	1	2	72	Done.bmp	718444	mission	371187	Ready2.bmp	M2	Blocks	11	455247		0	0	3000	1	85	83	.	11	.	disp	List3	453744	5	844	454588	chdncp@
Repetition_current	2380	1	"<?xml version=""1.0""?>\n<Clock xmlns:dt=""urn:schemas-microsoft-com:datatypes""><Description dt:dt=""string"">E-Prime Primary Realtime Clock</Description><StartTime><Timestamp dt:dt=""int"">0</Timestamp><DateUtc dt:dt=""string"">2010-10-19T19:13:02Z</DateUtc></StartTime><FrequencyChanges><FrequencyChange><Frequency dt:dt=""r8"">2793150000</Frequency><Timestamp dt:dt=""r8"">1.55659376618066E+15</Timestamp><Current dt:dt=""r8"">0</Current><DateUtc dt:dt=""string"">2010-10-19T19:13:02Z</DateUtc></FrequencyChange></FrequencyChanges></Clock>\n"	10/19/10 14:13	59.87	1	-953055640	10/19/10	14:13:02	7:13:02 PM	2	2	1	2	72	Done.bmp	718444	mission	371187	Ready2.bmp	M2	Blocks	12	459757		0	0	2800	1	86	84	.	12	.	disp	List3	458253	5	639	458892	flhhr@
Repetition_current	2380	1	"<?xml version=""1.0""?>\n<Clock xmlns:dt=""urn:schemas-microsoft-com:datatypes""><Description dt:dt=""string"">E-Prime Primary Realtime Clock</Description><StartTime><Timestamp dt:dt=""int"">0</Timestamp><DateUtc dt:dt=""string"">2010-10-19T19:13:02Z</DateUtc></StartTime><FrequencyChanges><FrequencyChange><Frequency dt:dt=""r8"">2793150000</Frequency><Timestamp dt:dt=""r8"">1.55659376618066E+15</Timestamp><Current dt:dt=""r8"">0</Current><DateUtc dt:dt=""string"">2010-10-19T19:13:02Z</DateUtc></FrequencyChange></FrequencyChanges></Clock>\n"	10/19/10 14:13	59.87	1	-953055640	10/19/10	14:13:02	7:13:02 PM	2	2	1	2	72	Done.bmp	718444	mission	371187	Ready2.bmp	M2	Blocks	13	464049		0	0	1800	1	87	85	.	13	.	disp	List3	462546	6	626	463172	stop@
Repetition_current	2380	1	"<?xml version=""1.0""?>\n<Clock xmlns:dt=""urn:schemas-microsoft-com:datatypes""><Description dt:dt=""string"">E-Prime Primary Realtime Clock</Description><StartTime><Timestamp dt:dt=""int"">0</Timestamp><DateUtc dt:dt=""string"">2010-10-19T19:13:02Z</DateUtc></StartTime><FrequencyChanges><FrequencyChange><Frequency dt:dt=""r8"">2793150000</Frequency><Timestamp dt:dt=""r8"">1.55659376618066E+15</Timestamp><Current dt:dt=""r8"">0</Current><DateUtc dt:dt=""string"">2010-10-19T19:13:02Z</DateUtc></FrequencyChange></FrequencyChanges></Clock>\n"	10/19/10 14:13	59.87	1	-953055640	10/19/10	14:13:02	7:13:02 PM	2	2	1	2	72	Done.bmp	718444	mission	371187	Ready2.bmp	M2	Blocks	14	467356		0	0	2500	1	88	86	.	14	.	disp	List3	465853	6	598	466451	try@
Repetition_current	2380	1	"<?xml version=""1.0""?>\n<Clock xmlns:dt=""urn:schemas-microsoft-com:datatypes""><Description dt:dt=""string"">E-Prime Primary Realtime Clock</Description><StartTime><Timestamp dt:dt=""int"">0</Timestamp><DateUtc dt:dt=""string"">2010-10-19T19:13:02Z</DateUtc></StartTime><FrequencyChanges><FrequencyChange><Frequency dt:dt=""r8"">2793150000</Frequency><Timestamp dt:dt=""r8"">1.55659376618066E+15</Timestamp><Current dt:dt=""r8"">0</Current><DateUtc dt:dt=""string"">2010-10-19T19:13:02Z</DateUtc></FrequencyChange></FrequencyChanges></Clock>\n"	10/19/10 14:13	59.87	1	-953055640	10/19/10	14:13:02	7:13:02 PM	2	2	1	2	72	Done.bmp	718444	mission	371187	Ready2.bmp	M2	Blocks	15	471349		0	0	2200	1	89	87	.	15	.	disp	List3	469847	6	668	470515	turn@
Repetition_current	2380	1	"<?xml version=""1.0""?>\n<Clock xmlns:dt=""urn:schemas-microsoft-com:datatypes""><Description dt:dt=""string"">E-Prime Primary Realtime Clock</Description><StartTime><Timestamp dt:dt=""int"">0</Timestamp><DateUtc dt:dt=""string"">2010-10-19T19:13:02Z</DateUtc></StartTime><FrequencyChanges><FrequencyChange><Frequency dt:dt=""r8"">2793150000</Frequency><Timestamp dt:dt=""r8"">1.55659376618066E+15</Timestamp><Current dt:dt=""r8"">0</Current><DateUtc dt:dt=""string"">2010-10-19T19:13:02Z</DateUtc></FrequencyChange></FrequencyChanges></Clock>\n"	10/19/10 14:13	59.87	1	-953055640	10/19/10	14:13:02	7:13:02 PM	2	2	1	2	72	Done.bmp	718444	mission	371187	Ready2.bmp	M2	Blocks	16	475056		0	0	1300	1	90	88	.	16	.	disp	List3	473553	6	570	474123	sound@
Repetition_current	2380	1	"<?xml version=""1.0""?>\n<Clock xmlns:dt=""urn:schemas-microsoft-com:datatypes""><Description dt:dt=""string"">E-Prime Primary Realtime Clock</Description><StartTime><Timestamp dt:dt=""int"">0</Timestamp><DateUtc dt:dt=""string"">2010-10-19T19:13:02Z</DateUtc></StartTime><FrequencyChanges><FrequencyChange><Frequency dt:dt=""r8"">2793150000</Frequency><Timestamp dt:dt=""r8"">1.55659376618066E+15</Timestamp><Current dt:dt=""r8"">0</Current><DateUtc dt:dt=""string"">2010-10-19T19:13:02Z</DateUtc></FrequencyChange></FrequencyChanges></Clock>\n"	10/19/10 14:13	59.87	1	-953055640	10/19/10	14:13:02	7:13:02 PM	2	2	1	2	72	Done.bmp	718444	mission	371187	Ready2.bmp	M2	Blocks	17	477847		0	0	1000	1	91	89	.	17	.	disp	List3	476344	6	611	476955	wife@
Repetition_current	2380	1	"<?xml version=""1.0""?>\n<Clock xmlns:dt=""urn:schemas-microsoft-com:datatypes""><Description dt:dt=""string"">E-Prime Primary Realtime Clock</Description><StartTime><Timestamp dt:dt=""int"">0</Timestamp><DateUtc dt:dt=""string"">2010-10-19T19:13:02Z</DateUtc></StartTime><FrequencyChanges><FrequencyChange><Frequency dt:dt=""r8"">2793150000</Frequency><Timestamp dt:dt=""r8"">1.55659376618066E+15</Timestamp><Current dt:dt=""r8"">0</Current><DateUtc dt:dt=""string"">2010-10-19T19:13:02Z</DateUtc></FrequencyChange></FrequencyChanges></Clock>\n"	10/19/10 14:13	59.87	1	-953055640	10/19/10	14:13:02	7:13:02 PM	2	2	1	2	72	Done.bmp	718444	mission	371187	Ready2.bmp	M2	Blocks	18	480351		0	0	1200	1	92	90	.	18	.	disp	List3	478849	6	618	479467	wood@
Repetition_current	2380	1	"<?xml version=""1.0""?>\n<Clock xmlns:dt=""urn:schemas-microsoft-com:datatypes""><Description dt:dt=""string"">E-Prime Primary Realtime Clock</Description><StartTime><Timestamp dt:dt=""int"">0</Timestamp><DateUtc dt:dt=""string"">2010-10-19T19:13:02Z</DateUtc></StartTime><FrequencyChanges><FrequencyChange><Frequency dt:dt=""r8"">2793150000</Frequency><Timestamp dt:dt=""r8"">1.55659376618066E+15</Timestamp><Current dt:dt=""r8"">0</Current><DateUtc dt:dt=""string"">2010-10-19T19:13:02Z</DateUtc></FrequencyChange></FrequencyChanges></Clock>\n"	10/19/10 14:13	59.87	1	-953055640	10/19/10	14:13:02	7:13:02 PM	2	2	1	2	72	Done.bmp	718444	mission	371187	Ready2.bmp	M2	Blocks	19	483057		0	0	1400	1	93	91	.	19	.	disp	List3	481554	6	497	482051	write@
Repetition_current	2380	1	"<?xml version=""1.0""?>\n<Clock xmlns:dt=""urn:schemas-microsoft-com:datatypes""><Description dt:dt=""string"">E-Prime Primary Realtime Clock</Description><StartTime><Timestamp dt:dt=""int"">0</Timestamp><DateUtc dt:dt=""string"">2010-10-19T19:13:02Z</DateUtc></StartTime><FrequencyChanges><FrequencyChange><Frequency dt:dt=""r8"">2793150000</Frequency><Timestamp dt:dt=""r8"">1.55659376618066E+15</Timestamp><Current dt:dt=""r8"">0</Current><DateUtc dt:dt=""string"">2010-10-19T19:13:02Z</DateUtc></FrequencyChange></FrequencyChanges></Clock>\n"	10/19/10 14:13	59.87	1	-953055640	10/19/10	14:13:02	7:13:02 PM	2	2	1	2	72	Done.bmp	718444	mission	371187	Ready2.bmp	M2	Blocks	20	485947		0	0	2300	1	94	92	.	20	.	disp	List3	484444	5	1127	485571	preet@
Repetition_current	2380	1	"<?xml version=""1.0""?>\n<Clock xmlns:dt=""urn:schemas-microsoft-com:datatypes""><Description dt:dt=""string"">E-Prime Primary Realtime Clock</Description><StartTime><Timestamp dt:dt=""int"">0</Timestamp><DateUtc dt:dt=""string"">2010-10-19T19:13:02Z</DateUtc></StartTime><FrequencyChanges><FrequencyChange><Frequency dt:dt=""r8"">2793150000</Frequency><Timestamp dt:dt=""r8"">1.55659376618066E+15</Timestamp><Current dt:dt=""r8"">0</Current><DateUtc dt:dt=""string"">2010-10-19T19:13:02Z</DateUtc></FrequencyChange></FrequencyChanges></Clock>\n"	10/19/10 14:13	59.87	1	-953055640	10/19/10	14:13:02	7:13:02 PM	2	2	1	2	72	Done.bmp	718444	mission	371187	Ready2.bmp	M2	Blocks	21	489755		0	0	2000	1	95	93	.	21	.	disp	List3	488252	5	783	489035	reat@
Repetition_current	2380	1	"<?xml version=""1.0""?>\n<Clock xmlns:dt=""urn:schemas-microsoft-com:datatypes""><Description dt:dt=""string"">E-Prime Primary Realtime Clock</Description><StartTime><Timestamp dt:dt=""int"">0</Timestamp><DateUtc dt:dt=""string"">2010-10-19T19:13:02Z</DateUtc></StartTime><FrequencyChanges><FrequencyChange><Frequency dt:dt=""r8"">2793150000</Frequency><Timestamp dt:dt=""r8"">1.55659376618066E+15</Timestamp><Current dt:dt=""r8"">0</Current><DateUtc dt:dt=""string"">2010-10-19T19:13:02Z</DateUtc></FrequencyChange></FrequencyChanges></Clock>\n"	10/19/10 14:13	59.87	1	-953055640	10/19/10	14:13:02	7:13:02 PM	2	2	1	2	72	Done.bmp	718444	mission	371187	Ready2.bmp	M2	Blocks	22	493246		0	0	1000	1	96	94	.	22	.	disp	List3	491744	5	931	492675	saip@
Repetition_current	2380	1	"<?xml version=""1.0""?>\n<Clock xmlns:dt=""urn:schemas-microsoft-com:datatypes""><Description dt:dt=""string"">E-Prime Primary Realtime Clock</Description><StartTime><Timestamp dt:dt=""int"">0</Timestamp><DateUtc dt:dt=""string"">2010-10-19T19:13:02Z</DateUtc></StartTime><FrequencyChanges><FrequencyChange><Frequency dt:dt=""r8"">2793150000</Frequency><Timestamp dt:dt=""r8"">1.55659376618066E+15</Timestamp><Current dt:dt=""r8"">0</Current><DateUtc dt:dt=""string"">2010-10-19T19:13:02Z</DateUtc></FrequencyChange></FrequencyChanges></Clock>\n"	10/19/10 14:13	59.87	1	-953055640	10/19/10	14:13:02	7:13:02 PM	2	2	1	2	72	Done.bmp	718444	mission	371187	Ready2.bmp	M2	Blocks	23	495751		0	0	13000	1	97	95	.	23	.	disp	List3	494248	5	739	494987	yad@
Repetition_current	2380	1	"<?xml version=""1.0""?>\n<Clock xmlns:dt=""urn:schemas-microsoft-com:datatypes""><Description dt:dt=""string"">E-Prime Primary Realtime Clock</Description><StartTime><Timestamp dt:dt=""int"">0</Timestamp><DateUtc dt:dt=""string"">2010-10-19T19:13:02Z</DateUtc></StartTime><FrequencyChanges><FrequencyChange><Frequency dt:dt=""r8"">2793150000</Frequency><Timestamp dt:dt=""r8"">1.55659376618066E+15</Timestamp><Current dt:dt=""r8"">0</Current><DateUtc dt:dt=""string"">2010-10-19T19:13:02Z</DateUtc></FrequencyChange></FrequencyChanges></Clock>\n"	10/19/10 14:13	59.87	1	-953055640	10/19/10	14:13:02	7:13:02 PM	2	2	1	2	72	Done.bmp	718444	mission	371187	Ready2.bmp	M2	Blocks	24	510250		0	0	1200	1	98	96	.	24	.	disp	List3	508746	5	1017	509763	spt@
Repetition_current	2380	1	"<?xml version=""1.0""?>\n<Clock xmlns:dt=""urn:schemas-microsoft-com:datatypes""><Description dt:dt=""string"">E-Prime Primary Realtime Clock</Description><StartTime><Timestamp dt:dt=""int"">0</Timestamp><DateUtc dt:dt=""string"">2010-10-19T19:13:02Z</DateUtc></StartTime><FrequencyChanges><FrequencyChange><Frequency dt:dt=""r8"">2793150000</Frequency><Timestamp dt:dt=""r8"">1.55659376618066E+15</Timestamp><Current dt:dt=""r8"">0</Current><DateUtc dt:dt=""string"">2010-10-19T19:13:02Z</DateUtc></FrequencyChange></FrequencyChanges></Clock>\n"	10/19/10 14:13	59.87	1	-953055640	10/19/10	14:13:02	7:13:02 PM	2	2	1	2	72	Done.bmp	718444	mission	371187	Ready2.bmp	M2	Blocks	25	512955		0	0	3000	1	99	97	.	25	.	disp	List3	511452	5	631	512083	rcd@
Repetition_current	2380	1	"<?xml version=""1.0""?>\n<Clock xmlns:dt=""urn:schemas-microsoft-com:datatypes""><Description dt:dt=""string"">E-Prime Primary Realtime Clock</Description><StartTime><Timestamp dt:dt=""int"">0</Timestamp><DateUtc dt:dt=""string"">2010-10-19T19:13:02Z</DateUtc></StartTime><FrequencyChanges><FrequencyChange><Frequency dt:dt=""r8"">2793150000</Frequency><Timestamp dt:dt=""r8"">1.55659376618066E+15</Timestamp><Current dt:dt=""r8"">0</Current><DateUtc dt:dt=""string"">2010-10-19T19:13:02Z</DateUtc></FrequencyChange></FrequencyChanges></Clock>\n"	10/19/10 14:13	59.87	1	-953055640	10/19/10	14:13:02	7:13:02 PM	2	2	1	2	72	Done.bmp	718444	mission	371187	Ready2.bmp	M2	Blocks	26	517448		0	0	1000	1	100	98	.	26	.	disp	List3	515945	5	1018	516963	zood@
Repetition_current	2380	1	"<?xml version=""1.0""?>\n<Clock xmlns:dt=""urn:schemas-microsoft-com:datatypes""><Description dt:dt=""string"">E-Prime Primary Realtime Clock</Description><StartTime><Timestamp dt:dt=""int"">0</Timestamp><DateUtc dt:dt=""string"">2010-10-19T19:13:02Z</DateUtc></StartTime><FrequencyChanges><FrequencyChange><Frequency dt:dt=""r8"">2793150000</Frequency><Timestamp dt:dt=""r8"">1.55659376618066E+15</Timestamp><Current dt:dt=""r8"">0</Current><DateUtc dt:dt=""string"">2010-10-19T19:13:02Z</DateUtc></FrequencyChange></FrequencyChanges></Clock>\n"	10/19/10 14:13	59.87	1	-953055640	10/19/10	14:13:02	7:13:02 PM	2	2	1	2	72	Done.bmp	718444	mission	371187	Ready2.bmp	M2	Blocks	27	519954		0	0	3000	1	101	99	.	27	.	disp	List3	518451	6	767	519218	wrong@
Repetition_current	2380	1	"<?xml version=""1.0""?>\n<Clock xmlns:dt=""urn:schemas-microsoft-com:datatypes""><Description dt:dt=""string"">E-Prime Primary Realtime Clock</Description><StartTime><Timestamp dt:dt=""int"">0</Timestamp><DateUtc dt:dt=""string"">2010-10-19T19:13:02Z</DateUtc></StartTime><FrequencyChanges><FrequencyChange><Frequency dt:dt=""r8"">2793150000</Frequency><Timestamp dt:dt=""r8"">1.55659376618066E+15</Timestamp><Current dt:dt=""r8"">0</Current><DateUtc dt:dt=""string"">2010-10-19T19:13:02Z</DateUtc></FrequencyChange></FrequencyChanges></Clock>\n"	10/19/10 14:13	59.87	1	-953055640	10/19/10	14:13:02	7:13:02 PM	2	2	1	2	72	Done.bmp	718444	mission	371187	Ready2.bmp	M2	Blocks	28	524447		0	0	2200	1	102	100	.	28	.	disp	List3	522944	6	874	523818	floor@
Repetition_current	2380	1	"<?xml version=""1.0""?>\n<Clock xmlns:dt=""urn:schemas-microsoft-com:datatypes""><Description dt:dt=""string"">E-Prime Primary Realtime Clock</Description><StartTime><Timestamp dt:dt=""int"">0</Timestamp><DateUtc dt:dt=""string"">2010-10-19T19:13:02Z</DateUtc></StartTime><FrequencyChanges><FrequencyChange><Frequency dt:dt=""r8"">2793150000</Frequency><Timestamp dt:dt=""r8"">1.55659376618066E+15</Timestamp><Current dt:dt=""r8"">0</Current><DateUtc dt:dt=""string"">2010-10-19T19:13:02Z</DateUtc></FrequencyChange></FrequencyChanges></Clock>\n"	10/19/10 14:13	59.87	1	-953055640	10/19/10	14:13:02	7:13:02 PM	2	2	1	2	72	Done.bmp	718444	mission	371187	Ready2.bmp	M2	Blocks	29	528155		0	0	2000	1	103	101	.	29	.	disp	List3	526652		0	0	foot@
Repetition_current	2380	1	"<?xml version=""1.0""?>\n<Clock xmlns:dt=""urn:schemas-microsoft-com:datatypes""><Description dt:dt=""string"">E-Prime Primary Realtime Clock</Description><StartTime><Timestamp dt:dt=""int"">0</Timestamp><DateUtc dt:dt=""string"">2010-10-19T19:13:02Z</DateUtc></StartTime><FrequencyChanges><FrequencyChange><Frequency dt:dt=""r8"">2793150000</Frequency><Timestamp dt:dt=""r8"">1.55659376618066E+15</Timestamp><Current dt:dt=""r8"">0</Current><DateUtc dt:dt=""string"">2010-10-19T19:13:02Z</DateUtc></FrequencyChange></FrequencyChanges></Clock>\n"	10/19/10 14:13	59.87	1	-953055640	10/19/10	14:13:02	7:13:02 PM	2	2	1	2	72	Done.bmp	718444	mission	371187	Ready2.bmp	M2	Blocks	30	531646		0	0	1200	1	104	102	.	30	.	disp	List3	530144	6	642	530786	wait@
Repetition_current	2380	1	"<?xml version=""1.0""?>\n<Clock xmlns:dt=""urn:schemas-microsoft-com:datatypes""><Description dt:dt=""string"">E-Prime Primary Realtime Clock</Description><StartTime><Timestamp dt:dt=""int"">0</Timestamp><DateUtc dt:dt=""string"">2010-10-19T19:13:02Z</DateUtc></StartTime><FrequencyChanges><FrequencyChange><Frequency dt:dt=""r8"">2793150000</Frequency><Timestamp dt:dt=""r8"">1.55659376618066E+15</Timestamp><Current dt:dt=""r8"">0</Current><DateUtc dt:dt=""string"">2010-10-19T19:13:02Z</DateUtc></FrequencyChange></FrequencyChanges></Clock>\n"	10/19/10 14:13	59.87	1	-953055640	10/19/10	14:13:02	7:13:02 PM	2	2	1	2	72	Done.bmp	718444	mission	371187	Ready2.bmp	M2	Blocks	31	534352		0	0	2500	1	105	103	.	31	.	disp	List3	532850	5	856	533706	trat@
Repetition_current	2380	1	"<?xml version=""1.0""?>\n<Clock xmlns:dt=""urn:schemas-microsoft-com:datatypes""><Description dt:dt=""string"">E-Prime Primary Realtime Clock</Description><StartTime><Timestamp dt:dt=""int"">0</Timestamp><DateUtc dt:dt=""string"">2010-10-19T19:13:02Z</DateUtc></StartTime><FrequencyChanges><FrequencyChange><Frequency dt:dt=""r8"">2793150000</Frequency><Timestamp dt:dt=""r8"">1.55659376618066E+15</Timestamp><Current dt:dt=""r8"">0</Current><DateUtc dt:dt=""string"">2010-10-19T19:13:02Z</DateUtc></FrequencyChange></FrequencyChanges></Clock>\n"	10/19/10 14:13	59.87	1	-953055640	10/19/10	14:13:02	7:13:02 PM	2	2	1	2	72	Done.bmp	718444	mission	371187	Ready2.bmp	M2	Blocks	32	538344		0	0	3000	1	106	104	.	32	.	disp	List3	536857	5	641	537498	kwpt@
Repetition_current	2380	1	"<?xml version=""1.0""?>\n<Clock xmlns:dt=""urn:schemas-microsoft-com:datatypes""><Description dt:dt=""string"">E-Prime Primary Realtime Clock</Description><StartTime><Timestamp dt:dt=""int"">0</Timestamp><DateUtc dt:dt=""string"">2010-10-19T19:13:02Z</DateUtc></StartTime><FrequencyChanges><FrequencyChange><Frequency dt:dt=""r8"">2793150000</Frequency><Timestamp dt:dt=""r8"">1.55659376618066E+15</Timestamp><Current dt:dt=""r8"">0</Current><DateUtc dt:dt=""string"">2010-10-19T19:13:02Z</DateUtc></FrequencyChange></FrequencyChanges></Clock>\n"	10/19/10 14:13	59.87	1	-953055640	10/19/10	14:13:02	7:13:02 PM	2	2	1	2	72	Done.bmp	718444	mission	371187	Ready2.bmp	M2	Blocks	33	542854		0	0	1100	1	107	105	.	33	.	disp	List3	541350	5	596	541946	mdp@
Repetition_current	2380	1	"<?xml version=""1.0""?>\n<Clock xmlns:dt=""urn:schemas-microsoft-com:datatypes""><Description dt:dt=""string"">E-Prime Primary Realtime Clock</Description><StartTime><Timestamp dt:dt=""int"">0</Timestamp><DateUtc dt:dt=""string"">2010-10-19T19:13:02Z</DateUtc></StartTime><FrequencyChanges><FrequencyChange><Frequency dt:dt=""r8"">2793150000</Frequency><Timestamp dt:dt=""r8"">1.55659376618066E+15</Timestamp><Current dt:dt=""r8"">0</Current><DateUtc dt:dt=""string"">2010-10-19T19:13:02Z</DateUtc></FrequencyChange></FrequencyChanges></Clock>\n"	10/19/10 14:13	59.87	1	-953055640	10/19/10	14:13:02	7:13:02 PM	2	2	1	2	72	Done.bmp	718444	mission	371187	Ready2.bmp	M2	Blocks	34	545444		0	0	2300	1	108	106	.	34	.	disp	List3	543956	6	630	544586	box@
Repetition_current	2380	1	"<?xml version=""1.0""?>\n<Clock xmlns:dt=""urn:schemas-microsoft-com:datatypes""><Description dt:dt=""string"">E-Prime Primary Realtime Clock</Description><StartTime><Timestamp dt:dt=""int"">0</Timestamp><DateUtc dt:dt=""string"">2010-10-19T19:13:02Z</DateUtc></StartTime><FrequencyChanges><FrequencyChange><Frequency dt:dt=""r8"">2793150000</Frequency><Timestamp dt:dt=""r8"">1.55659376618066E+15</Timestamp><Current dt:dt=""r8"">0</Current><DateUtc dt:dt=""string"">2010-10-19T19:13:02Z</DateUtc></FrequencyChange></FrequencyChanges></Clock>\n"	10/19/10 14:13	59.87	1	-953055640	10/19/10	14:13:02	7:13:02 PM	2	2	1	2	72	Done.bmp	718444	mission	371187	Ready2.bmp	M2	Blocks	35	549251		0	0	12800	1	109	107	.	35	.	disp	List3	547748	6	614	548362	dark@
Repetition_current	2380	1	"<?xml version=""1.0""?>\n<Clock xmlns:dt=""urn:schemas-microsoft-com:datatypes""><Description dt:dt=""string"">E-Prime Primary Realtime Clock</Description><StartTime><Timestamp dt:dt=""int"">0</Timestamp><DateUtc dt:dt=""string"">2010-10-19T19:13:02Z</DateUtc></StartTime><FrequencyChanges><FrequencyChange><Frequency dt:dt=""r8"">2793150000</Frequency><Timestamp dt:dt=""r8"">1.55659376618066E+15</Timestamp><Current dt:dt=""r8"">0</Current><DateUtc dt:dt=""string"">2010-10-19T19:13:02Z</DateUtc></FrequencyChange></FrequencyChanges></Clock>\n"	10/19/10 14:13	59.87	1	-953055640	10/19/10	14:13:02	7:13:02 PM	2	2	1	2	72	Done.bmp	718444	mission	371187	Ready2.bmp	M2	Blocks	36	563548		0	0	1200	1	110	108	.	36	.	disp	List3	562045	6	684	562729	eat@
Repetition_current	2380	1	"<?xml version=""1.0""?>\n<Clock xmlns:dt=""urn:schemas-microsoft-com:datatypes""><Description dt:dt=""string"">E-Prime Primary Realtime Clock</Description><StartTime><Timestamp dt:dt=""int"">0</Timestamp><DateUtc dt:dt=""string"">2010-10-19T19:13:02Z</DateUtc></StartTime><FrequencyChanges><FrequencyChange><Frequency dt:dt=""r8"">2793150000</Frequency><Timestamp dt:dt=""r8"">1.55659376618066E+15</Timestamp><Current dt:dt=""r8"">0</Current><DateUtc dt:dt=""string"">2010-10-19T19:13:02Z</DateUtc></FrequencyChange></FrequencyChanges></Clock>\n"	10/19/10 14:13	59.87	1	-953055640	10/19/10	14:13:02	7:13:02 PM	2	2	1	2	72	Done.bmp	718444	mission	371187	Ready2.bmp	M2	Blocks	37	566254		0	0	1000	1	111	109	.	37	.	disp	List3	564751	6	594	565345	farm@
Repetition_current	2380	1	"<?xml version=""1.0""?>\n<Clock xmlns:dt=""urn:schemas-microsoft-com:datatypes""><Description dt:dt=""string"">E-Prime Primary Realtime Clock</Description><StartTime><Timestamp dt:dt=""int"">0</Timestamp><DateUtc dt:dt=""string"">2010-10-19T19:13:02Z</DateUtc></StartTime><FrequencyChanges><FrequencyChange><Frequency dt:dt=""r8"">2793150000</Frequency><Timestamp dt:dt=""r8"">1.55659376618066E+15</Timestamp><Current dt:dt=""r8"">0</Current><DateUtc dt:dt=""string"">2010-10-19T19:13:02Z</DateUtc></FrequencyChange></FrequencyChanges></Clock>\n"	10/19/10 14:13	59.87	1	-953055640	10/19/10	14:13:02	7:13:02 PM	2	2	1	2	72	Done.bmp	718444	mission	371187	Ready2.bmp	M2	Blocks	38	568744		0	0	2100	1	112	110	.	38	.	disp	List3	567256	6	953	568209	line@
Repetition_current	2380	1	"<?xml version=""1.0""?>\n<Clock xmlns:dt=""urn:schemas-microsoft-com:datatypes""><Description dt:dt=""string"">E-Prime Primary Realtime Clock</Description><StartTime><Timestamp dt:dt=""int"">0</Timestamp><DateUtc dt:dt=""string"">2010-10-19T19:13:02Z</DateUtc></StartTime><FrequencyChanges><FrequencyChange><Frequency dt:dt=""r8"">2793150000</Frequency><Timestamp dt:dt=""r8"">1.55659376618066E+15</Timestamp><Current dt:dt=""r8"">0</Current><DateUtc dt:dt=""string"">2010-10-19T19:13:02Z</DateUtc></FrequencyChange></FrequencyChanges></Clock>\n"	10/19/10 14:13	59.87	1	-953055640	10/19/10	14:13:02	7:13:02 PM	2	2	1	2	72	Done.bmp	718444	mission	371187	Ready2.bmp	M2	Blocks	39	572351		0	0	1000	1	113	111	.	39	.	disp	List3	570848	6	505	571353	moon@
Repetition_current	2380	1	"<?xml version=""1.0""?>\n<Clock xmlns:dt=""urn:schemas-microsoft-com:datatypes""><Description dt:dt=""string"">E-Prime Primary Realtime Clock</Description><StartTime><Timestamp dt:dt=""int"">0</Timestamp><DateUtc dt:dt=""string"">2010-10-19T19:13:02Z</DateUtc></StartTime><FrequencyChanges><FrequencyChange><Frequency dt:dt=""r8"">2793150000</Frequency><Timestamp dt:dt=""r8"">1.55659376618066E+15</Timestamp><Current dt:dt=""r8"">0</Current><DateUtc dt:dt=""string"">2010-10-19T19:13:02Z</DateUtc></FrequencyChange></FrequencyChanges></Clock>\n"	10/19/10 14:13	59.87	1	-953055640	10/19/10	14:13:02	7:13:02 PM	2	2	1	2	72	Done.bmp	718444	mission	371187	Ready2.bmp	M2	Blocks	40	574856		0	0	1900	1	114	112	.	40	.	disp	List3	573353	6	512	573865	rain@
Repetition_current	2380	1	"<?xml version=""1.0""?>\n<Clock xmlns:dt=""urn:schemas-microsoft-com:datatypes""><Description dt:dt=""string"">E-Prime Primary Realtime Clock</Description><StartTime><Timestamp dt:dt=""int"">0</Timestamp><DateUtc dt:dt=""string"">2010-10-19T19:13:02Z</DateUtc></StartTime><FrequencyChanges><FrequencyChange><Frequency dt:dt=""r8"">2793150000</Frequency><Timestamp dt:dt=""r8"">1.55659376618066E+15</Timestamp><Current dt:dt=""r8"">0</Current><DateUtc dt:dt=""string"">2010-10-19T19:13:02Z</DateUtc></FrequencyChange></FrequencyChanges></Clock>\n"	10/19/10 14:13	59.87	1	-953055640	10/19/10	14:13:02	7:13:02 PM	2	2	1	2	72	Done.bmp	718444	mission	371187	Ready2.bmp	M2	Blocks	41	578247		0	0	3000	1	115	113	.	41	.	disp	List3	576744	5	633	577377	stnm@
Repetition_current	2380	1	"<?xml version=""1.0""?>\n<Clock xmlns:dt=""urn:schemas-microsoft-com:datatypes""><Description dt:dt=""string"">E-Prime Primary Realtime Clock</Description><StartTime><Timestamp dt:dt=""int"">0</Timestamp><DateUtc dt:dt=""string"">2010-10-19T19:13:02Z</DateUtc></StartTime><FrequencyChanges><FrequencyChange><Frequency dt:dt=""r8"">2793150000</Frequency><Timestamp dt:dt=""r8"">1.55659376618066E+15</Timestamp><Current dt:dt=""r8"">0</Current><DateUtc dt:dt=""string"">2010-10-19T19:13:02Z</DateUtc></FrequencyChange></FrequencyChanges></Clock>\n"	10/19/10 14:13	59.87	1	-953055640	10/19/10	14:13:02	7:13:02 PM	2	2	1	2	72	Done.bmp	718444	mission	371187	Ready2.bmp	M2	Blocks	42	582757		0	0	1400	1	116	114	.	42	.	disp	List3	581254	5	547	581801	sthnr@
Repetition_current	2380	1	"<?xml version=""1.0""?>\n<Clock xmlns:dt=""urn:schemas-microsoft-com:datatypes""><Description dt:dt=""string"">E-Prime Primary Realtime Clock</Description><StartTime><Timestamp dt:dt=""int"">0</Timestamp><DateUtc dt:dt=""string"">2010-10-19T19:13:02Z</DateUtc></StartTime><FrequencyChanges><FrequencyChange><Frequency dt:dt=""r8"">2793150000</Frequency><Timestamp dt:dt=""r8"">1.55659376618066E+15</Timestamp><Current dt:dt=""r8"">0</Current><DateUtc dt:dt=""string"">2010-10-19T19:13:02Z</DateUtc></FrequencyChange></FrequencyChanges></Clock>\n"	10/19/10 14:13	59.87	1	-953055640	10/19/10	14:13:02	7:13:02 PM	2	2	1	2	72	Done.bmp	718444	mission	371187	Ready2.bmp	M2	Blocks	43	585646		0	0	1100	1	117	115	.	43	.	disp	List3	584144	5	585	584729	hct@
Repetition_current	2380	1	"<?xml version=""1.0""?>\n<Clock xmlns:dt=""urn:schemas-microsoft-com:datatypes""><Description dt:dt=""string"">E-Prime Primary Realtime Clock</Description><StartTime><Timestamp dt:dt=""int"">0</Timestamp><DateUtc dt:dt=""string"">2010-10-19T19:13:02Z</DateUtc></StartTime><FrequencyChanges><FrequencyChange><Frequency dt:dt=""r8"">2793150000</Frequency><Timestamp dt:dt=""r8"">1.55659376618066E+15</Timestamp><Current dt:dt=""r8"">0</Current><DateUtc dt:dt=""string"">2010-10-19T19:13:02Z</DateUtc></FrequencyChange></FrequencyChanges></Clock>\n"	10/19/10 14:13	59.87	1	-953055640	10/19/10	14:13:02	7:13:02 PM	2	2	1	2	72	Done.bmp	718444	mission	371187	Ready2.bmp	M2	Blocks	44	588252		0	0	1800	1	118	116	.	44	.	disp	List3	586749	6	932	587681	wish@
Repetition_current	2380	1	"<?xml version=""1.0""?>\n<Clock xmlns:dt=""urn:schemas-microsoft-com:datatypes""><Description dt:dt=""string"">E-Prime Primary Realtime Clock</Description><StartTime><Timestamp dt:dt=""int"">0</Timestamp><DateUtc dt:dt=""string"">2010-10-19T19:13:02Z</DateUtc></StartTime><FrequencyChanges><FrequencyChange><Frequency dt:dt=""r8"">2793150000</Frequency><Timestamp dt:dt=""r8"">1.55659376618066E+15</Timestamp><Current dt:dt=""r8"">0</Current><DateUtc dt:dt=""string"">2010-10-19T19:13:02Z</DateUtc></FrequencyChange></FrequencyChanges></Clock>\n"	10/19/10 14:13	59.87	1	-953055640	10/19/10	14:13:02	7:13:02 PM	2	2	1	2	72	Done.bmp	718444	mission	371187	Ready2.bmp	M2	Blocks	45	591544		0	0	1900	1	119	117	.	45	.	disp	List3	590056	6	865	590921	red@
Repetition_current	2380	1	"<?xml version=""1.0""?>\n<Clock xmlns:dt=""urn:schemas-microsoft-com:datatypes""><Description dt:dt=""string"">E-Prime Primary Realtime Clock</Description><StartTime><Timestamp dt:dt=""int"">0</Timestamp><DateUtc dt:dt=""string"">2010-10-19T19:13:02Z</DateUtc></StartTime><FrequencyChanges><FrequencyChange><Frequency dt:dt=""r8"">2793150000</Frequency><Timestamp dt:dt=""r8"">1.55659376618066E+15</Timestamp><Current dt:dt=""r8"">0</Current><DateUtc dt:dt=""string"">2010-10-19T19:13:02Z</DateUtc></FrequencyChange></FrequencyChanges></Clock>\n"	10/19/10 14:13	59.87	1	-953055640	10/19/10	14:13:02	7:13:02 PM	2	2	1	2	72	Done.bmp	718444	mission	371187	Ready2.bmp	M2	Blocks	46	594950		0	0	3000	1	120	118	.	46	.	disp	List3	593447	6	594	594041	road@
Repetition_current	2380	1	"<?xml version=""1.0""?>\n<Clock xmlns:dt=""urn:schemas-microsoft-com:datatypes""><Description dt:dt=""string"">E-Prime Primary Realtime Clock</Description><StartTime><Timestamp dt:dt=""int"">0</Timestamp><DateUtc dt:dt=""string"">2010-10-19T19:13:02Z</DateUtc></StartTime><FrequencyChanges><FrequencyChange><Frequency dt:dt=""r8"">2793150000</Frequency><Timestamp dt:dt=""r8"">1.55659376618066E+15</Timestamp><Current dt:dt=""r8"">0</Current><DateUtc dt:dt=""string"">2010-10-19T19:13:02Z</DateUtc></FrequencyChange></FrequencyChanges></Clock>\n"	10/19/10 14:13	59.87	1	-953055640	10/19/10	14:13:02	7:13:02 PM	2	2	1	2	72	Done.bmp	718444	mission	371187	Ready2.bmp	M2	Blocks	47	599444		0	0	2800	1	121	119	.	47	.	disp	List3	597956	5	1165	599121	skib@
Repetition_current	2380	1	"<?xml version=""1.0""?>\n<Clock xmlns:dt=""urn:schemas-microsoft-com:datatypes""><Description dt:dt=""string"">E-Prime Primary Realtime Clock</Description><StartTime><Timestamp dt:dt=""int"">0</Timestamp><DateUtc dt:dt=""string"">2010-10-19T19:13:02Z</DateUtc></StartTime><FrequencyChanges><FrequencyChange><Frequency dt:dt=""r8"">2793150000</Frequency><Timestamp dt:dt=""r8"">1.55659376618066E+15</Timestamp><Current dt:dt=""r8"">0</Current><DateUtc dt:dt=""string"">2010-10-19T19:13:02Z</DateUtc></FrequencyChange></FrequencyChanges></Clock>\n"	10/19/10 14:13	59.87	1	-953055640	10/19/10	14:13:02	7:13:02 PM	2	2	1	2	72	Done.bmp	718444	mission	371187	Ready2.bmp	M2	Blocks	48	603752		0	0	2100	1	122	120	.	48	.	disp	List3	602249	5	776	603025	smy@
Repetition_current	2380	1	"<?xml version=""1.0""?>\n<Clock xmlns:dt=""urn:schemas-microsoft-com:datatypes""><Description dt:dt=""string"">E-Prime Primary Realtime Clock</Description><StartTime><Timestamp dt:dt=""int"">0</Timestamp><DateUtc dt:dt=""string"">2010-10-19T19:13:02Z</DateUtc></StartTime><FrequencyChanges><FrequencyChange><Frequency dt:dt=""r8"">2793150000</Frequency><Timestamp dt:dt=""r8"">1.55659376618066E+15</Timestamp><Current dt:dt=""r8"">0</Current><DateUtc dt:dt=""string"">2010-10-19T19:13:02Z</DateUtc></FrequencyChange></FrequencyChanges></Clock>\n"	10/19/10 14:13	59.87	1	-953055640	10/19/10	14:13:02	7:13:02 PM	2	2	1	2	72	Done.bmp	718444	mission	371187	Ready2.bmp	M2	Blocks	49	607344		0	0	1800	1	123	121	.	49	.	disp	List3	605857	5	664	606521	tey@
Repetition_current	2380	1	"<?xml version=""1.0""?>\n<Clock xmlns:dt=""urn:schemas-microsoft-com:datatypes""><Description dt:dt=""string"">E-Prime Primary Realtime Clock</Description><StartTime><Timestamp dt:dt=""int"">0</Timestamp><DateUtc dt:dt=""string"">2010-10-19T19:13:02Z</DateUtc></StartTime><FrequencyChanges><FrequencyChange><Frequency dt:dt=""r8"">2793150000</Frequency><Timestamp dt:dt=""r8"">1.55659376618066E+15</Timestamp><Current dt:dt=""r8"">0</Current><DateUtc dt:dt=""string"">2010-10-19T19:13:02Z</DateUtc></FrequencyChange></FrequencyChanges></Clock>\n"	10/19/10 14:13	59.87	1	-953055640	10/19/10	14:13:02	7:13:02 PM	2	2	1	2	72	Done.bmp	718444	mission	371187	Ready2.bmp	M2	Blocks	50	610651		0	0	1000	1	124	122	.	50	.	disp	List3	609147	5	909	610056	bhx@
Repetition_current	2380	1	"<?xml version=""1.0""?>\n<Clock xmlns:dt=""urn:schemas-microsoft-com:datatypes""><Description dt:dt=""string"">E-Prime Primary Realtime Clock</Description><StartTime><Timestamp dt:dt=""int"">0</Timestamp><DateUtc dt:dt=""string"">2010-10-19T19:13:02Z</DateUtc></StartTime><FrequencyChanges><FrequencyChange><Frequency dt:dt=""r8"">2793150000</Frequency><Timestamp dt:dt=""r8"">1.55659376618066E+15</Timestamp><Current dt:dt=""r8"">0</Current><DateUtc dt:dt=""string"">2010-10-19T19:13:02Z</DateUtc></FrequencyChange></FrequencyChanges></Clock>\n"	10/19/10 14:13	59.87	1	-953055640	10/19/10	14:13:02	7:13:02 PM	2	2	1	2	72	Done.bmp	718444	mission	371187	Ready2.bmp	M2	Blocks	51	613156		0	0	3000	1	125	123	.	51	.	disp	List3	611653	5	995	612648	hdrsp@
Repetition_current	2380	1	"<?xml version=""1.0""?>\n<Clock xmlns:dt=""urn:schemas-microsoft-com:datatypes""><Description dt:dt=""string"">E-Prime Primary Realtime Clock</Description><StartTime><Timestamp dt:dt=""int"">0</Timestamp><DateUtc dt:dt=""string"">2010-10-19T19:13:02Z</DateUtc></StartTime><FrequencyChanges><FrequencyChange><Frequency dt:dt=""r8"">2793150000</Frequency><Timestamp dt:dt=""r8"">1.55659376618066E+15</Timestamp><Current dt:dt=""r8"">0</Current><DateUtc dt:dt=""string"">2010-10-19T19:13:02Z</DateUtc></FrequencyChange></FrequencyChanges></Clock>\n"	10/19/10 14:13	59.87	1	-953055640	10/19/10	14:13:02	7:13:02 PM	2	2	1	2	72	Done.bmp	718444	mission	371187	Ready2.bmp	M2	Blocks	52	617649		0	0	2500	1	126	124	.	52	.	disp	List3	616146	5	590	616736	rzst@
Repetition_current	2380	1	"<?xml version=""1.0""?>\n<Clock xmlns:dt=""urn:schemas-microsoft-com:datatypes""><Description dt:dt=""string"">E-Prime Primary Realtime Clock</Description><StartTime><Timestamp dt:dt=""int"">0</Timestamp><DateUtc dt:dt=""string"">2010-10-19T19:13:02Z</DateUtc></StartTime><FrequencyChanges><FrequencyChange><Frequency dt:dt=""r8"">2793150000</Frequency><Timestamp dt:dt=""r8"">1.55659376618066E+15</Timestamp><Current dt:dt=""r8"">0</Current><DateUtc dt:dt=""string"">2010-10-19T19:13:02Z</DateUtc></FrequencyChange></FrequencyChanges></Clock>\n"	10/19/10 14:13	59.87	1	-953055640	10/19/10	14:13:02	7:13:02 PM	2	2	1	2	72	Done.bmp	718444	mission	371187	Ready2.bmp	M2	Blocks	53	621658		0	0	1800	1	127	125	.	53	.	disp	List3	620155	5	575	620730	jeet@
Repetition_current	2380	1	"<?xml version=""1.0""?>\n<Clock xmlns:dt=""urn:schemas-microsoft-com:datatypes""><Description dt:dt=""string"">E-Prime Primary Realtime Clock</Description><StartTime><Timestamp dt:dt=""int"">0</Timestamp><DateUtc dt:dt=""string"">2010-10-19T19:13:02Z</DateUtc></StartTime><FrequencyChanges><FrequencyChange><Frequency dt:dt=""r8"">2793150000</Frequency><Timestamp dt:dt=""r8"">1.55659376618066E+15</Timestamp><Current dt:dt=""r8"">0</Current><DateUtc dt:dt=""string"">2010-10-19T19:13:02Z</DateUtc></FrequencyChange></FrequencyChanges></Clock>\n"	10/19/10 14:13	59.87	1	-953055640	10/19/10	14:13:02	7:13:02 PM	2	2	1	2	72	Done.bmp	718444	mission	371187	Ready2.bmp	M2	Blocks	54	624948		0	0	2700	1	128	126	.	54	.	disp	List3	623445	5	555	624000	libe@
Repetition_current	2380	1	"<?xml version=""1.0""?>\n<Clock xmlns:dt=""urn:schemas-microsoft-com:datatypes""><Description dt:dt=""string"">E-Prime Primary Realtime Clock</Description><StartTime><Timestamp dt:dt=""int"">0</Timestamp><DateUtc dt:dt=""string"">2010-10-19T19:13:02Z</DateUtc></StartTime><FrequencyChanges><FrequencyChange><Frequency dt:dt=""r8"">2793150000</Frequency><Timestamp dt:dt=""r8"">1.55659376618066E+15</Timestamp><Current dt:dt=""r8"">0</Current><DateUtc dt:dt=""string"">2010-10-19T19:13:02Z</DateUtc></FrequencyChange></FrequencyChanges></Clock>\n"	10/19/10 14:13	59.87	1	-953055640	10/19/10	14:13:02	7:13:02 PM	2	2	1	2	72	Done.bmp	718444	mission	371187	Ready2.bmp	M2	Blocks	55	629157		0	0	3000	1	129	127	.	55	.	disp	List3	627654	5	826	628480	pait@
Repetition_current	2380	1	"<?xml version=""1.0""?>\n<Clock xmlns:dt=""urn:schemas-microsoft-com:datatypes""><Description dt:dt=""string"">E-Prime Primary Realtime Clock</Description><StartTime><Timestamp dt:dt=""int"">0</Timestamp><DateUtc dt:dt=""string"">2010-10-19T19:13:02Z</DateUtc></StartTime><FrequencyChanges><FrequencyChange><Frequency dt:dt=""r8"">2793150000</Frequency><Timestamp dt:dt=""r8"">1.55659376618066E+15</Timestamp><Current dt:dt=""r8"">0</Current><DateUtc dt:dt=""string"">2010-10-19T19:13:02Z</DateUtc></FrequencyChange></FrequencyChanges></Clock>\n"	10/19/10 14:13	59.87	1	-953055640	10/19/10	14:13:02	7:13:02 PM	2	2	1	2	72	Done.bmp	718444	mission	371187	Ready2.bmp	M2	Blocks	56	633651		0	0	1000	1	130	128	.	56	.	disp	List3	632147	5	629	632776	pdgp@
