ExperimentName	Subject	Session	Clock.Information	Clock.StartTimeOfDay	Display.RefreshRate	Group	RandomSeed	SessionDate	SessionTime	SessionTimeUtc	Block	Blocks	Blocks.Cycle	Blocks.Sample	Cnt	doneScr	Procedure[Block]	Ready.OffsetTime	readyScr	runList	Running[Block]	Trial	category	ch2.OnsetTime	ch2.RESP	ch2.RT	ch2.RTTime	jitter	List3	List3.Cycle	List3.Sample	M2	M4	Procedure[Trial]	Running[Trial]	stim.OnsetTime	stim.RESP	stim.RT	stim.RTTime	text1	type
SWR List A	2164	1	<?xml version="1.0"?>\n<Clock xmlns:dt="urn:schemas-microsoft-com:datatypes"><Description dt:dt="string">E-Prime Primary Realtime Clock</Description><StartTime><Timestamp dt:dt="int">0</Timestamp><DateUtc dt:dt="string">2010-07-29T19:03:57Z</DateUtc></StartTime><FrequencyChanges><FrequencyChange><Frequency dt:dt="r8">2793150000</Frequency><Timestamp dt:dt="r8">27741328848750</Timestamp><Current dt:dt="r8">0</Current><DateUtc dt:dt="string">2010-07-29T19:03:57Z</DateUtc></FrequencyChange></FrequencyChanges></Clock>\n	7/29/2010 2:03:57 PM	59.870	1	347821019	07-29-2010	14:03:57	7:03:57 PM	1	1	1	1	15	Done.bmp	mission	85525	ReadyPrac.bmp	PracList	Blocks	.	.	.	.	.	.	.	.	.	.	.	.	.	.	.	.	.	.	.	.@
SWR List A	2164	1	<?xml version="1.0"?>\n<Clock xmlns:dt="urn:schemas-microsoft-com:datatypes"><Description dt:dt="string">E-Prime Primary Realtime Clock</Description><StartTime><Timestamp dt:dt="int">0</Timestamp><DateUtc dt:dt="string">2010-07-29T19:03:57Z</DateUtc></StartTime><FrequencyChanges><FrequencyChange><Frequency dt:dt="r8">2793150000</Frequency><Timestamp dt:dt="r8">27741328848750</Timestamp><Current dt:dt="r8">0</Current><DateUtc dt:dt="string">2010-07-29T19:03:57Z</DateUtc></FrequencyChange></FrequencyChanges></Clock>\n	7/29/2010 2:03:57 PM	59.870	1	347821019	07-29-2010	14:03:57	7:03:57 PM	2	2	1	2	50	Done.bmp	mission	86933	Ready.bmp	M2	Blocks	1	HCI	103564		0	0	1000	1	3	1	1	.	disp	List3	102061	6	1461	103522	chief	word@
SWR List A	2164	1	<?xml version="1.0"?>\n<Clock xmlns:dt="urn:schemas-microsoft-com:datatypes"><Description dt:dt="string">E-Prime Primary Realtime Clock</Description><StartTime><Timestamp dt:dt="int">0</Timestamp><DateUtc dt:dt="string">2010-07-29T19:03:57Z</DateUtc></StartTime><FrequencyChanges><FrequencyChange><Frequency dt:dt="r8">2793150000</Frequency><Timestamp dt:dt="r8">27741328848750</Timestamp><Current dt:dt="r8">0</Current><DateUtc dt:dt="string">2010-07-29T19:03:57Z</DateUtc></FrequencyChange></FrequencyChanges></Clock>\n	7/29/2010 2:03:57 PM	59.870	1	347821019	07-29-2010	14:03:57	7:03:57 PM	2	2	1	2	50	Done.bmp	mission	86933	Ready.bmp	M2	Blocks	2	HCR	106069		0	0	1400	1	4	2	2	.	disp	List3	104567	6	963	105530	store	word@
SWR List A	2164	1	<?xml version="1.0"?>\n<Clock xmlns:dt="urn:schemas-microsoft-com:datatypes"><Description dt:dt="string">E-Prime Primary Realtime Clock</Description><StartTime><Timestamp dt:dt="int">0</Timestamp><DateUtc dt:dt="string">2010-07-29T19:03:57Z</DateUtc></StartTime><FrequencyChanges><FrequencyChange><Frequency dt:dt="r8">2793150000</Frequency><Timestamp dt:dt="r8">27741328848750</Timestamp><Current dt:dt="r8">0</Current><DateUtc dt:dt="string">2010-07-29T19:03:57Z</DateUtc></FrequencyChange></FrequencyChanges></Clock>\n	7/29/2010 2:03:57 PM	59.870	1	347821019	07-29-2010	14:03:57	7:03:57 PM	2	2	1	2	50	Done.bmp	mission	86933	Ready.bmp	M2	Blocks	3	HCI	108959		0	0	1500	1	5	3	3	.	disp	List3	107472	6	842	108314	house	word@
SWR List A	2164	1	<?xml version="1.0"?>\n<Clock xmlns:dt="urn:schemas-microsoft-com:datatypes"><Description dt:dt="string">E-Prime Primary Realtime Clock</Description><StartTime><Timestamp dt:dt="int">0</Timestamp><DateUtc dt:dt="string">2010-07-29T19:03:57Z</DateUtc></StartTime><FrequencyChanges><FrequencyChange><Frequency dt:dt="r8">2793150000</Frequency><Timestamp dt:dt="r8">27741328848750</Timestamp><Current dt:dt="r8">0</Current><DateUtc dt:dt="string">2010-07-29T19:03:57Z</DateUtc></FrequencyChange></FrequencyChanges></Clock>\n	7/29/2010 2:03:57 PM	59.870	1	347821019	07-29-2010	14:03:57	7:03:57 PM	2	2	1	2	50	Done.bmp	mission	86933	Ready.bmp	M2	Blocks	4	HAI	111965		0	0	1700	1	6	4	4	.	disp	List3	110462	6	996	111458	used	word@
SWR List A	2164	1	<?xml version="1.0"?>\n<Clock xmlns:dt="urn:schemas-microsoft-com:datatypes"><Description dt:dt="string">E-Prime Primary Realtime Clock</Description><StartTime><Timestamp dt:dt="int">0</Timestamp><DateUtc dt:dt="string">2010-07-29T19:03:57Z</DateUtc></StartTime><FrequencyChanges><FrequencyChange><Frequency dt:dt="r8">2793150000</Frequency><Timestamp dt:dt="r8">27741328848750</Timestamp><Current dt:dt="r8">0</Current><DateUtc dt:dt="string">2010-07-29T19:03:57Z</DateUtc></FrequencyChange></FrequencyChanges></Clock>\n	7/29/2010 2:03:57 PM	59.870	1	347821019	07-29-2010	14:03:57	7:03:57 PM	2	2	1	2	50	Done.bmp	mission	86933	Ready.bmp	M2	Blocks	5	NON	115172		0	0	2100	1	7	5	5	.	disp	List3	113669	5	1108	114777	kie	nonword@
SWR List A	2164	1	<?xml version="1.0"?>\n<Clock xmlns:dt="urn:schemas-microsoft-com:datatypes"><Description dt:dt="string">E-Prime Primary Realtime Clock</Description><StartTime><Timestamp dt:dt="int">0</Timestamp><DateUtc dt:dt="string">2010-07-29T19:03:57Z</DateUtc></StartTime><FrequencyChanges><FrequencyChange><Frequency dt:dt="r8">2793150000</Frequency><Timestamp dt:dt="r8">27741328848750</Timestamp><Current dt:dt="r8">0</Current><DateUtc dt:dt="string">2010-07-29T19:03:57Z</DateUtc></FrequencyChange></FrequencyChanges></Clock>\n	7/29/2010 2:03:57 PM	59.870	1	347821019	07-29-2010	14:03:57	7:03:57 PM	2	2	1	2	50	Done.bmp	mission	86933	Ready.bmp	M2	Blocks	6	HAR	118763		0	0	3000	1	8	6	6	.	disp	List3	117260	6	757	118017	make	word@
SWR List A	2164	1	<?xml version="1.0"?>\n<Clock xmlns:dt="urn:schemas-microsoft-com:datatypes"><Description dt:dt="string">E-Prime Primary Realtime Clock</Description><StartTime><Timestamp dt:dt="int">0</Timestamp><DateUtc dt:dt="string">2010-07-29T19:03:57Z</DateUtc></StartTime><FrequencyChanges><FrequencyChange><Frequency dt:dt="r8">2793150000</Frequency><Timestamp dt:dt="r8">27741328848750</Timestamp><Current dt:dt="r8">0</Current><DateUtc dt:dt="string">2010-07-29T19:03:57Z</DateUtc></FrequencyChange></FrequencyChanges></Clock>\n	7/29/2010 2:03:57 PM	59.870	1	347821019	07-29-2010	14:03:57	7:03:57 PM	2	2	1	2	50	Done.bmp	mission	86933	Ready.bmp	M2	Blocks	7	HAR	123257		0	0	2100	1	9	7	7	.	disp	List3	121770	6	679	122449	next	word@
SWR List A	2164	1	<?xml version="1.0"?>\n<Clock xmlns:dt="urn:schemas-microsoft-com:datatypes"><Description dt:dt="string">E-Prime Primary Realtime Clock</Description><StartTime><Timestamp dt:dt="int">0</Timestamp><DateUtc dt:dt="string">2010-07-29T19:03:57Z</DateUtc></StartTime><FrequencyChanges><FrequencyChange><Frequency dt:dt="r8">2793150000</Frequency><Timestamp dt:dt="r8">27741328848750</Timestamp><Current dt:dt="r8">0</Current><DateUtc dt:dt="string">2010-07-29T19:03:57Z</DateUtc></FrequencyChange></FrequencyChanges></Clock>\n	7/29/2010 2:03:57 PM	59.870	1	347821019	07-29-2010	14:03:57	7:03:57 PM	2	2	1	2	50	Done.bmp	mission	86933	Ready.bmp	M2	Blocks	8	HAI	126864		0	0	11400	1	10	8	8	.	disp	List3	125361	6	776	126137	are	word@
SWR List A	2164	1	<?xml version="1.0"?>\n<Clock xmlns:dt="urn:schemas-microsoft-com:datatypes"><Description dt:dt="string">E-Prime Primary Realtime Clock</Description><StartTime><Timestamp dt:dt="int">0</Timestamp><DateUtc dt:dt="string">2010-07-29T19:03:57Z</DateUtc></StartTime><FrequencyChanges><FrequencyChange><Frequency dt:dt="r8">2793150000</Frequency><Timestamp dt:dt="r8">27741328848750</Timestamp><Current dt:dt="r8">0</Current><DateUtc dt:dt="string">2010-07-29T19:03:57Z</DateUtc></FrequencyChange></FrequencyChanges></Clock>\n	7/29/2010 2:03:57 PM	59.870	1	347821019	07-29-2010	14:03:57	7:03:57 PM	2	2	1	2	50	Done.bmp	mission	86933	Ready.bmp	M2	Blocks	9	HAI	139759		0	0	2200	1	11	9	9	.	disp	List3	138257	6	1032	139289	want	word@
SWR List A	2164	1	<?xml version="1.0"?>\n<Clock xmlns:dt="urn:schemas-microsoft-com:datatypes"><Description dt:dt="string">E-Prime Primary Realtime Clock</Description><StartTime><Timestamp dt:dt="int">0</Timestamp><DateUtc dt:dt="string">2010-07-29T19:03:57Z</DateUtc></StartTime><FrequencyChanges><FrequencyChange><Frequency dt:dt="r8">2793150000</Frequency><Timestamp dt:dt="r8">27741328848750</Timestamp><Current dt:dt="r8">0</Current><DateUtc dt:dt="string">2010-07-29T19:03:57Z</DateUtc></FrequencyChange></FrequencyChanges></Clock>\n	7/29/2010 2:03:57 PM	59.870	1	347821019	07-29-2010	14:03:57	7:03:57 PM	2	2	1	2	50	Done.bmp	mission	86933	Ready.bmp	M2	Blocks	10	HCI	143467		0	0	1800	1	12	10	10	.	disp	List3	141964	6	1181	143145	grass	word@
SWR List A	2164	1	<?xml version="1.0"?>\n<Clock xmlns:dt="urn:schemas-microsoft-com:datatypes"><Description dt:dt="string">E-Prime Primary Realtime Clock</Description><StartTime><Timestamp dt:dt="int">0</Timestamp><DateUtc dt:dt="string">2010-07-29T19:03:57Z</DateUtc></StartTime><FrequencyChanges><FrequencyChange><Frequency dt:dt="r8">2793150000</Frequency><Timestamp dt:dt="r8">27741328848750</Timestamp><Current dt:dt="r8">0</Current><DateUtc dt:dt="string">2010-07-29T19:03:57Z</DateUtc></FrequencyChange></FrequencyChanges></Clock>\n	7/29/2010 2:03:57 PM	59.870	1	347821019	07-29-2010	14:03:57	7:03:57 PM	2	2	1	2	50	Done.bmp	mission	86933	Ready.bmp	M2	Blocks	11	HCR	146757		0	0	2600	1	13	11	11	.	disp	List3	145271	5	762	146033	sun	word@
SWR List A	2164	1	<?xml version="1.0"?>\n<Clock xmlns:dt="urn:schemas-microsoft-com:datatypes"><Description dt:dt="string">E-Prime Primary Realtime Clock</Description><StartTime><Timestamp dt:dt="int">0</Timestamp><DateUtc dt:dt="string">2010-07-29T19:03:57Z</DateUtc></StartTime><FrequencyChanges><FrequencyChange><Frequency dt:dt="r8">2793150000</Frequency><Timestamp dt:dt="r8">27741328848750</Timestamp><Current dt:dt="r8">0</Current><DateUtc dt:dt="string">2010-07-29T19:03:57Z</DateUtc></FrequencyChange></FrequencyChanges></Clock>\n	7/29/2010 2:03:57 PM	59.870	1	347821019	07-29-2010	14:03:57	7:03:57 PM	2	2	1	2	50	Done.bmp	mission	86933	Ready.bmp	M2	Blocks	12	NON	150866		0	0	1600	1	14	12	12	.	disp	List3	149363	5	1278	150641	nye	nonword@
SWR List A	2164	1	<?xml version="1.0"?>\n<Clock xmlns:dt="urn:schemas-microsoft-com:datatypes"><Description dt:dt="string">E-Prime Primary Realtime Clock</Description><StartTime><Timestamp dt:dt="int">0</Timestamp><DateUtc dt:dt="string">2010-07-29T19:03:57Z</DateUtc></StartTime><FrequencyChanges><FrequencyChange><Frequency dt:dt="r8">2793150000</Frequency><Timestamp dt:dt="r8">27741328848750</Timestamp><Current dt:dt="r8">0</Current><DateUtc dt:dt="string">2010-07-29T19:03:57Z</DateUtc></FrequencyChange></FrequencyChanges></Clock>\n	7/29/2010 2:03:57 PM	59.870	1	347821019	07-29-2010	14:03:57	7:03:57 PM	2	2	1	2	50	Done.bmp	mission	86933	Ready.bmp	M2	Blocks	13	HCI	153957		0	0	2300	1	15	13	13	.	disp	List3	152470	6	1187	153657	wall	word@
SWR List A	2164	1	<?xml version="1.0"?>\n<Clock xmlns:dt="urn:schemas-microsoft-com:datatypes"><Description dt:dt="string">E-Prime Primary Realtime Clock</Description><StartTime><Timestamp dt:dt="int">0</Timestamp><DateUtc dt:dt="string">2010-07-29T19:03:57Z</DateUtc></StartTime><FrequencyChanges><FrequencyChange><Frequency dt:dt="r8">2793150000</Frequency><Timestamp dt:dt="r8">27741328848750</Timestamp><Current dt:dt="r8">0</Current><DateUtc dt:dt="string">2010-07-29T19:03:57Z</DateUtc></FrequencyChange></FrequencyChanges></Clock>\n	7/29/2010 2:03:57 PM	59.870	1	347821019	07-29-2010	14:03:57	7:03:57 PM	2	2	1	2	50	Done.bmp	mission	86933	Ready.bmp	M2	Blocks	14	HCR	157764		0	0	1000	1	16	14	14	.	disp	List3	156261	6	1020	157281	wind	word@
SWR List A	2164	1	<?xml version="1.0"?>\n<Clock xmlns:dt="urn:schemas-microsoft-com:datatypes"><Description dt:dt="string">E-Prime Primary Realtime Clock</Description><StartTime><Timestamp dt:dt="int">0</Timestamp><DateUtc dt:dt="string">2010-07-29T19:03:57Z</DateUtc></StartTime><FrequencyChanges><FrequencyChange><Frequency dt:dt="r8">2793150000</Frequency><Timestamp dt:dt="r8">27741328848750</Timestamp><Current dt:dt="r8">0</Current><DateUtc dt:dt="string">2010-07-29T19:03:57Z</DateUtc></FrequencyChange></FrequencyChanges></Clock>\n	7/29/2010 2:03:57 PM	59.870	1	347821019	07-29-2010	14:03:57	7:03:57 PM	2	2	1	2	50	Done.bmp	mission	86933	Ready.bmp	M2	Blocks	15	HCI	160270		0	0	2100	1	17	15	15	.	disp	List3	158767	5	1218	159985	path	word@
SWR List A	2164	1	<?xml version="1.0"?>\n<Clock xmlns:dt="urn:schemas-microsoft-com:datatypes"><Description dt:dt="string">E-Prime Primary Realtime Clock</Description><StartTime><Timestamp dt:dt="int">0</Timestamp><DateUtc dt:dt="string">2010-07-29T19:03:57Z</DateUtc></StartTime><FrequencyChanges><FrequencyChange><Frequency dt:dt="r8">2793150000</Frequency><Timestamp dt:dt="r8">27741328848750</Timestamp><Current dt:dt="r8">0</Current><DateUtc dt:dt="string">2010-07-29T19:03:57Z</DateUtc></FrequencyChange></FrequencyChanges></Clock>\n	7/29/2010 2:03:57 PM	59.870	1	347821019	07-29-2010	14:03:57	7:03:57 PM	2	2	1	2	50	Done.bmp	mission	86933	Ready.bmp	M2	Blocks	16	HAI	163861		0	0	3000	1	18	16	16	.	disp	List3	162358	6	682	163040	would	word@
SWR List A	2164	1	<?xml version="1.0"?>\n<Clock xmlns:dt="urn:schemas-microsoft-com:datatypes"><Description dt:dt="string">E-Prime Primary Realtime Clock</Description><StartTime><Timestamp dt:dt="int">0</Timestamp><DateUtc dt:dt="string">2010-07-29T19:03:57Z</DateUtc></StartTime><FrequencyChanges><FrequencyChange><Frequency dt:dt="r8">2793150000</Frequency><Timestamp dt:dt="r8">27741328848750</Timestamp><Current dt:dt="r8">0</Current><DateUtc dt:dt="string">2010-07-29T19:03:57Z</DateUtc></FrequencyChange></FrequencyChanges></Clock>\n	7/29/2010 2:03:57 PM	59.870	1	347821019	07-29-2010	14:03:57	7:03:57 PM	2	2	1	2	50	Done.bmp	mission	86933	Ready.bmp	M2	Blocks	17	NON	168371		0	0	2800	1	19	17	17	.	disp	List3	166868		0	0	afe	nonword@
SWR List A	2164	1	<?xml version="1.0"?>\n<Clock xmlns:dt="urn:schemas-microsoft-com:datatypes"><Description dt:dt="string">E-Prime Primary Realtime Clock</Description><StartTime><Timestamp dt:dt="int">0</Timestamp><DateUtc dt:dt="string">2010-07-29T19:03:57Z</DateUtc></StartTime><FrequencyChanges><FrequencyChange><Frequency dt:dt="r8">2793150000</Frequency><Timestamp dt:dt="r8">27741328848750</Timestamp><Current dt:dt="r8">0</Current><DateUtc dt:dt="string">2010-07-29T19:03:57Z</DateUtc></FrequencyChange></FrequencyChanges></Clock>\n	7/29/2010 2:03:57 PM	59.870	1	347821019	07-29-2010	14:03:57	7:03:57 PM	2	2	1	2	50	Done.bmp	mission	86933	Ready.bmp	M2	Blocks	18	HAR	172663		0	0	1900	1	20	18	18	.	disp	List3	171160	6	848	172008	since	word@
SWR List A	2164	1	<?xml version="1.0"?>\n<Clock xmlns:dt="urn:schemas-microsoft-com:datatypes"><Description dt:dt="string">E-Prime Primary Realtime Clock</Description><StartTime><Timestamp dt:dt="int">0</Timestamp><DateUtc dt:dt="string">2010-07-29T19:03:57Z</DateUtc></StartTime><FrequencyChanges><FrequencyChange><Frequency dt:dt="r8">2793150000</Frequency><Timestamp dt:dt="r8">27741328848750</Timestamp><Current dt:dt="r8">0</Current><DateUtc dt:dt="string">2010-07-29T19:03:57Z</DateUtc></FrequencyChange></FrequencyChanges></Clock>\n	7/29/2010 2:03:57 PM	59.870	1	347821019	07-29-2010	14:03:57	7:03:57 PM	2	2	1	2	50	Done.bmp	mission	86933	Ready.bmp	M2	Blocks	19	HCR	176071		0	0	2800	1	21	19	19	.	disp	List3	174568		0	0	light	word@
SWR List A	2164	1	<?xml version="1.0"?>\n<Clock xmlns:dt="urn:schemas-microsoft-com:datatypes"><Description dt:dt="string">E-Prime Primary Realtime Clock</Description><StartTime><Timestamp dt:dt="int">0</Timestamp><DateUtc dt:dt="string">2010-07-29T19:03:57Z</DateUtc></StartTime><FrequencyChanges><FrequencyChange><Frequency dt:dt="r8">2793150000</Frequency><Timestamp dt:dt="r8">27741328848750</Timestamp><Current dt:dt="r8">0</Current><DateUtc dt:dt="string">2010-07-29T19:03:57Z</DateUtc></FrequencyChange></FrequencyChanges></Clock>\n	7/29/2010 2:03:57 PM	59.870	1	347821019	07-29-2010	14:03:57	7:03:57 PM	2	2	1	2	50	Done.bmp	mission	86933	Ready.bmp	M2	Blocks	20	HAI	180364		0	0	1700	1	22	20	20	.	disp	List3	178860	6	1156	180016	than	word@
SWR List A	2164	1	<?xml version="1.0"?>\n<Clock xmlns:dt="urn:schemas-microsoft-com:datatypes"><Description dt:dt="string">E-Prime Primary Realtime Clock</Description><StartTime><Timestamp dt:dt="int">0</Timestamp><DateUtc dt:dt="string">2010-07-29T19:03:57Z</DateUtc></StartTime><FrequencyChanges><FrequencyChange><Frequency dt:dt="r8">2793150000</Frequency><Timestamp dt:dt="r8">27741328848750</Timestamp><Current dt:dt="r8">0</Current><DateUtc dt:dt="string">2010-07-29T19:03:57Z</DateUtc></FrequencyChange></FrequencyChanges></Clock>\n	7/29/2010 2:03:57 PM	59.870	1	347821019	07-29-2010	14:03:57	7:03:57 PM	2	2	1	2	50	Done.bmp	mission	86933	Ready.bmp	M2	Blocks	21	NON	183570		0	0	1900	1	23	21	21	.	disp	List3	182067		0	0	kawm	nonword@
SWR List A	2164	1	<?xml version="1.0"?>\n<Clock xmlns:dt="urn:schemas-microsoft-com:datatypes"><Description dt:dt="string">E-Prime Primary Realtime Clock</Description><StartTime><Timestamp dt:dt="int">0</Timestamp><DateUtc dt:dt="string">2010-07-29T19:03:57Z</DateUtc></StartTime><FrequencyChanges><FrequencyChange><Frequency dt:dt="r8">2793150000</Frequency><Timestamp dt:dt="r8">27741328848750</Timestamp><Current dt:dt="r8">0</Current><DateUtc dt:dt="string">2010-07-29T19:03:57Z</DateUtc></FrequencyChange></FrequencyChanges></Clock>\n	7/29/2010 2:03:57 PM	59.870	1	347821019	07-29-2010	14:03:57	7:03:57 PM	2	2	1	2	50	Done.bmp	mission	86933	Ready.bmp	M2	Blocks	22	HCR	186961		0	0	12600	1	24	22	22	.	disp	List3	185458	6	806	186264	book	word@
SWR List A	2164	1	<?xml version="1.0"?>\n<Clock xmlns:dt="urn:schemas-microsoft-com:datatypes"><Description dt:dt="string">E-Prime Primary Realtime Clock</Description><StartTime><Timestamp dt:dt="int">0</Timestamp><DateUtc dt:dt="string">2010-07-29T19:03:57Z</DateUtc></StartTime><FrequencyChanges><FrequencyChange><Frequency dt:dt="r8">2793150000</Frequency><Timestamp dt:dt="r8">27741328848750</Timestamp><Current dt:dt="r8">0</Current><DateUtc dt:dt="string">2010-07-29T19:03:57Z</DateUtc></FrequencyChange></FrequencyChanges></Clock>\n	7/29/2010 2:03:57 PM	59.870	1	347821019	07-29-2010	14:03:57	7:03:57 PM	2	2	1	2	50	Done.bmp	mission	86933	Ready.bmp	M2	Blocks	23	NON	201058		0	0	1000	1	25	23	23	.	disp	List3	199573	5	1307	200880	jawl	nonword@
SWR List A	2164	1	<?xml version="1.0"?>\n<Clock xmlns:dt="urn:schemas-microsoft-com:datatypes"><Description dt:dt="string">E-Prime Primary Realtime Clock</Description><StartTime><Timestamp dt:dt="int">0</Timestamp><DateUtc dt:dt="string">2010-07-29T19:03:57Z</DateUtc></StartTime><FrequencyChanges><FrequencyChange><Frequency dt:dt="r8">2793150000</Frequency><Timestamp dt:dt="r8">27741328848750</Timestamp><Current dt:dt="r8">0</Current><DateUtc dt:dt="string">2010-07-29T19:03:57Z</DateUtc></FrequencyChange></FrequencyChanges></Clock>\n	7/29/2010 2:03:57 PM	59.870	1	347821019	07-29-2010	14:03:57	7:03:57 PM	2	2	1	2	50	Done.bmp	mission	86933	Ready.bmp	M2	Blocks	24	HAR	203564		0	0	3000	1	26	24	24	.	disp	List3	202061	6	595	202656	sure	word@
SWR List A	2164	1	<?xml version="1.0"?>\n<Clock xmlns:dt="urn:schemas-microsoft-com:datatypes"><Description dt:dt="string">E-Prime Primary Realtime Clock</Description><StartTime><Timestamp dt:dt="int">0</Timestamp><DateUtc dt:dt="string">2010-07-29T19:03:57Z</DateUtc></StartTime><FrequencyChanges><FrequencyChange><Frequency dt:dt="r8">2793150000</Frequency><Timestamp dt:dt="r8">27741328848750</Timestamp><Current dt:dt="r8">0</Current><DateUtc dt:dt="string">2010-07-29T19:03:57Z</DateUtc></FrequencyChange></FrequencyChanges></Clock>\n	7/29/2010 2:03:57 PM	59.870	1	347821019	07-29-2010	14:03:57	7:03:57 PM	2	2	1	2	50	Done.bmp	mission	86933	Ready.bmp	M2	Blocks	25	HCI	208057		0	0	1300	1	27	25	25	.	disp	List3	206570	6	1006	207576	world	word@
SWR List A	2164	1	<?xml version="1.0"?>\n<Clock xmlns:dt="urn:schemas-microsoft-com:datatypes"><Description dt:dt="string">E-Prime Primary Realtime Clock</Description><StartTime><Timestamp dt:dt="int">0</Timestamp><DateUtc dt:dt="string">2010-07-29T19:03:57Z</DateUtc></StartTime><FrequencyChanges><FrequencyChange><Frequency dt:dt="r8">2793150000</Frequency><Timestamp dt:dt="r8">27741328848750</Timestamp><Current dt:dt="r8">0</Current><DateUtc dt:dt="string">2010-07-29T19:03:57Z</DateUtc></FrequencyChange></FrequencyChanges></Clock>\n	7/29/2010 2:03:57 PM	59.870	1	347821019	07-29-2010	14:03:57	7:03:57 PM	2	2	1	2	50	Done.bmp	mission	86933	Ready.bmp	M2	Blocks	26	HAI	210863		0	0	1500	1	28	26	26	.	disp	List3	209360	6	880	210240	have	word@
SWR List A	2164	1	<?xml version="1.0"?>\n<Clock xmlns:dt="urn:schemas-microsoft-com:datatypes"><Description dt:dt="string">E-Prime Primary Realtime Clock</Description><StartTime><Timestamp dt:dt="int">0</Timestamp><DateUtc dt:dt="string">2010-07-29T19:03:57Z</DateUtc></StartTime><FrequencyChanges><FrequencyChange><Frequency dt:dt="r8">2793150000</Frequency><Timestamp dt:dt="r8">27741328848750</Timestamp><Current dt:dt="r8">0</Current><DateUtc dt:dt="string">2010-07-29T19:03:57Z</DateUtc></FrequencyChange></FrequencyChanges></Clock>\n	7/29/2010 2:03:57 PM	59.870	1	347821019	07-29-2010	14:03:57	7:03:57 PM	2	2	1	2	50	Done.bmp	mission	86933	Ready.bmp	M2	Blocks	27	HAR	213870		0	0	1000	1	29	27	27	.	disp	List3	212366	6	1033	213399	not	word@
SWR List A	2164	1	<?xml version="1.0"?>\n<Clock xmlns:dt="urn:schemas-microsoft-com:datatypes"><Description dt:dt="string">E-Prime Primary Realtime Clock</Description><StartTime><Timestamp dt:dt="int">0</Timestamp><DateUtc dt:dt="string">2010-07-29T19:03:57Z</DateUtc></StartTime><FrequencyChanges><FrequencyChange><Frequency dt:dt="r8">2793150000</Frequency><Timestamp dt:dt="r8">27741328848750</Timestamp><Current dt:dt="r8">0</Current><DateUtc dt:dt="string">2010-07-29T19:03:57Z</DateUtc></FrequencyChange></FrequencyChanges></Clock>\n	7/29/2010 2:03:57 PM	59.870	1	347821019	07-29-2010	14:03:57	7:03:57 PM	2	2	1	2	50	Done.bmp	mission	86933	Ready.bmp	M2	Blocks	28	HCR	216358		0	0	3000	1	30	28	28	.	disp	List3	214872	6	496	215368	food	word@
SWR List A	2164	1	<?xml version="1.0"?>\n<Clock xmlns:dt="urn:schemas-microsoft-com:datatypes"><Description dt:dt="string">E-Prime Primary Realtime Clock</Description><StartTime><Timestamp dt:dt="int">0</Timestamp><DateUtc dt:dt="string">2010-07-29T19:03:57Z</DateUtc></StartTime><FrequencyChanges><FrequencyChange><Frequency dt:dt="r8">2793150000</Frequency><Timestamp dt:dt="r8">27741328848750</Timestamp><Current dt:dt="r8">0</Current><DateUtc dt:dt="string">2010-07-29T19:03:57Z</DateUtc></FrequencyChange></FrequencyChanges></Clock>\n	7/29/2010 2:03:57 PM	59.870	1	347821019	07-29-2010	14:03:57	7:03:57 PM	2	2	1	2	50	Done.bmp	mission	86933	Ready.bmp	M2	Blocks	29	NON	220868		0	0	2700	1	31	29	29	.	disp	List3	219365	5	866	220231	ald	nonword@
SWR List A	2164	1	<?xml version="1.0"?>\n<Clock xmlns:dt="urn:schemas-microsoft-com:datatypes"><Description dt:dt="string">E-Prime Primary Realtime Clock</Description><StartTime><Timestamp dt:dt="int">0</Timestamp><DateUtc dt:dt="string">2010-07-29T19:03:57Z</DateUtc></StartTime><FrequencyChanges><FrequencyChange><Frequency dt:dt="r8">2793150000</Frequency><Timestamp dt:dt="r8">27741328848750</Timestamp><Current dt:dt="r8">0</Current><DateUtc dt:dt="string">2010-07-29T19:03:57Z</DateUtc></FrequencyChange></FrequencyChanges></Clock>\n	7/29/2010 2:03:57 PM	59.870	1	347821019	07-29-2010	14:03:57	7:03:57 PM	2	2	1	2	50	Done.bmp	mission	86933	Ready.bmp	M2	Blocks	30	HCR	225061		0	0	1200	1	32	30	30	.	disp	List3	223557	6	1242	224799	lead	word@
SWR List A	2164	1	<?xml version="1.0"?>\n<Clock xmlns:dt="urn:schemas-microsoft-com:datatypes"><Description dt:dt="string">E-Prime Primary Realtime Clock</Description><StartTime><Timestamp dt:dt="int">0</Timestamp><DateUtc dt:dt="string">2010-07-29T19:03:57Z</DateUtc></StartTime><FrequencyChanges><FrequencyChange><Frequency dt:dt="r8">2793150000</Frequency><Timestamp dt:dt="r8">27741328848750</Timestamp><Current dt:dt="r8">0</Current><DateUtc dt:dt="string">2010-07-29T19:03:57Z</DateUtc></FrequencyChange></FrequencyChanges></Clock>\n	7/29/2010 2:03:57 PM	59.870	1	347821019	07-29-2010	14:03:57	7:03:57 PM	2	2	1	2	50	Done.bmp	mission	86933	Ready.bmp	M2	Blocks	31	HCI	227766		0	0	1500	1	33	31	31	.	disp	List3	226263		0	0	eye	word@
SWR List A	2164	1	<?xml version="1.0"?>\n<Clock xmlns:dt="urn:schemas-microsoft-com:datatypes"><Description dt:dt="string">E-Prime Primary Realtime Clock</Description><StartTime><Timestamp dt:dt="int">0</Timestamp><DateUtc dt:dt="string">2010-07-29T19:03:57Z</DateUtc></StartTime><FrequencyChanges><FrequencyChange><Frequency dt:dt="r8">2793150000</Frequency><Timestamp dt:dt="r8">27741328848750</Timestamp><Current dt:dt="r8">0</Current><DateUtc dt:dt="string">2010-07-29T19:03:57Z</DateUtc></FrequencyChange></FrequencyChanges></Clock>\n	7/29/2010 2:03:57 PM	59.870	1	347821019	07-29-2010	14:03:57	7:03:57 PM	2	2	1	2	50	Done.bmp	mission	86933	Ready.bmp	M2	Blocks	32	NON	230757		0	0	2300	1	34	32	32	.	disp	List3	229270		0	0	bram	nonword@
SWR List A	2164	1	<?xml version="1.0"?>\n<Clock xmlns:dt="urn:schemas-microsoft-com:datatypes"><Description dt:dt="string">E-Prime Primary Realtime Clock</Description><StartTime><Timestamp dt:dt="int">0</Timestamp><DateUtc dt:dt="string">2010-07-29T19:03:57Z</DateUtc></StartTime><FrequencyChanges><FrequencyChange><Frequency dt:dt="r8">2793150000</Frequency><Timestamp dt:dt="r8">27741328848750</Timestamp><Current dt:dt="r8">0</Current><DateUtc dt:dt="string">2010-07-29T19:03:57Z</DateUtc></FrequencyChange></FrequencyChanges></Clock>\n	7/29/2010 2:03:57 PM	59.870	1	347821019	07-29-2010	14:03:57	7:03:57 PM	2	2	1	2	50	Done.bmp	mission	86933	Ready.bmp	M2	Blocks	33	HAI	234564		0	0	1100	1	35	33	33	.	disp	List3	233061	6	1266	234327	where	word@
SWR List A	2164	1	<?xml version="1.0"?>\n<Clock xmlns:dt="urn:schemas-microsoft-com:datatypes"><Description dt:dt="string">E-Prime Primary Realtime Clock</Description><StartTime><Timestamp dt:dt="int">0</Timestamp><DateUtc dt:dt="string">2010-07-29T19:03:57Z</DateUtc></StartTime><FrequencyChanges><FrequencyChange><Frequency dt:dt="r8">2793150000</Frequency><Timestamp dt:dt="r8">27741328848750</Timestamp><Current dt:dt="r8">0</Current><DateUtc dt:dt="string">2010-07-29T19:03:57Z</DateUtc></FrequencyChange></FrequencyChanges></Clock>\n	7/29/2010 2:03:57 PM	59.870	1	347821019	07-29-2010	14:03:57	7:03:57 PM	2	2	1	2	50	Done.bmp	mission	86933	Ready.bmp	M2	Blocks	34	HCI	237170		0	0	3000	1	36	34	34	.	disp	List3	235667	6	844	236511	snow	word@
SWR List A	2164	1	<?xml version="1.0"?>\n<Clock xmlns:dt="urn:schemas-microsoft-com:datatypes"><Description dt:dt="string">E-Prime Primary Realtime Clock</Description><StartTime><Timestamp dt:dt="int">0</Timestamp><DateUtc dt:dt="string">2010-07-29T19:03:57Z</DateUtc></StartTime><FrequencyChanges><FrequencyChange><Frequency dt:dt="r8">2793150000</Frequency><Timestamp dt:dt="r8">27741328848750</Timestamp><Current dt:dt="r8">0</Current><DateUtc dt:dt="string">2010-07-29T19:03:57Z</DateUtc></FrequencyChange></FrequencyChanges></Clock>\n	7/29/2010 2:03:57 PM	59.870	1	347821019	07-29-2010	14:03:57	7:03:57 PM	2	2	1	2	50	Done.bmp	mission	86933	Ready.bmp	M2	Blocks	35	HAR	241663		0	0	12700	1	37	35	35	.	disp	List3	240160	6	863	241023	now	word@
SWR List A	2164	1	<?xml version="1.0"?>\n<Clock xmlns:dt="urn:schemas-microsoft-com:datatypes"><Description dt:dt="string">E-Prime Primary Realtime Clock</Description><StartTime><Timestamp dt:dt="int">0</Timestamp><DateUtc dt:dt="string">2010-07-29T19:03:57Z</DateUtc></StartTime><FrequencyChanges><FrequencyChange><Frequency dt:dt="r8">2793150000</Frequency><Timestamp dt:dt="r8">27741328848750</Timestamp><Current dt:dt="r8">0</Current><DateUtc dt:dt="string">2010-07-29T19:03:57Z</DateUtc></FrequencyChange></FrequencyChanges></Clock>\n	7/29/2010 2:03:57 PM	59.870	1	347821019	07-29-2010	14:03:57	7:03:57 PM	2	2	1	2	50	Done.bmp	mission	86933	Ready.bmp	M2	Blocks	36	HCI	255861		0	0	1000	1	38	36	36	.	disp	List3	254357	6	722	255079	glass	word@
SWR List A	2164	1	<?xml version="1.0"?>\n<Clock xmlns:dt="urn:schemas-microsoft-com:datatypes"><Description dt:dt="string">E-Prime Primary Realtime Clock</Description><StartTime><Timestamp dt:dt="int">0</Timestamp><DateUtc dt:dt="string">2010-07-29T19:03:57Z</DateUtc></StartTime><FrequencyChanges><FrequencyChange><Frequency dt:dt="r8">2793150000</Frequency><Timestamp dt:dt="r8">27741328848750</Timestamp><Current dt:dt="r8">0</Current><DateUtc dt:dt="string">2010-07-29T19:03:57Z</DateUtc></FrequencyChange></FrequencyChanges></Clock>\n	7/29/2010 2:03:57 PM	59.870	1	347821019	07-29-2010	14:03:57	7:03:57 PM	2	2	1	2	50	Done.bmp	mission	86933	Ready.bmp	M2	Blocks	37	HAI	258366		0	0	1800	1	39	37	37	.	disp	List3	256863	6	919	257782	once	word@
SWR List A	2164	1	<?xml version="1.0"?>\n<Clock xmlns:dt="urn:schemas-microsoft-com:datatypes"><Description dt:dt="string">E-Prime Primary Realtime Clock</Description><StartTime><Timestamp dt:dt="int">0</Timestamp><DateUtc dt:dt="string">2010-07-29T19:03:57Z</DateUtc></StartTime><FrequencyChanges><FrequencyChange><Frequency dt:dt="r8">2793150000</Frequency><Timestamp dt:dt="r8">27741328848750</Timestamp><Current dt:dt="r8">0</Current><DateUtc dt:dt="string">2010-07-29T19:03:57Z</DateUtc></FrequencyChange></FrequencyChanges></Clock>\n	7/29/2010 2:03:57 PM	59.870	1	347821019	07-29-2010	14:03:57	7:03:57 PM	2	2	1	2	50	Done.bmp	mission	86933	Ready.bmp	M2	Blocks	38	HAI	261657		0	0	3000	1	40	38	38	.	disp	List3	260170	6	588	260758	get	word@
SWR List A	2164	1	<?xml version="1.0"?>\n<Clock xmlns:dt="urn:schemas-microsoft-com:datatypes"><Description dt:dt="string">E-Prime Primary Realtime Clock</Description><StartTime><Timestamp dt:dt="int">0</Timestamp><DateUtc dt:dt="string">2010-07-29T19:03:57Z</DateUtc></StartTime><FrequencyChanges><FrequencyChange><Frequency dt:dt="r8">2793150000</Frequency><Timestamp dt:dt="r8">27741328848750</Timestamp><Current dt:dt="r8">0</Current><DateUtc dt:dt="string">2010-07-29T19:03:57Z</DateUtc></FrequencyChange></FrequencyChanges></Clock>\n	7/29/2010 2:03:57 PM	59.870	1	347821019	07-29-2010	14:03:57	7:03:57 PM	2	2	1	2	50	Done.bmp	mission	86933	Ready.bmp	M2	Blocks	39	HCR	266166		0	0	1300	1	41	39	39	.	disp	List3	264663	6	615	265278	sea	word@
SWR List A	2164	1	<?xml version="1.0"?>\n<Clock xmlns:dt="urn:schemas-microsoft-com:datatypes"><Description dt:dt="string">E-Prime Primary Realtime Clock</Description><StartTime><Timestamp dt:dt="int">0</Timestamp><DateUtc dt:dt="string">2010-07-29T19:03:57Z</DateUtc></StartTime><FrequencyChanges><FrequencyChange><Frequency dt:dt="r8">2793150000</Frequency><Timestamp dt:dt="r8">27741328848750</Timestamp><Current dt:dt="r8">0</Current><DateUtc dt:dt="string">2010-07-29T19:03:57Z</DateUtc></FrequencyChange></FrequencyChanges></Clock>\n	7/29/2010 2:03:57 PM	59.870	1	347821019	07-29-2010	14:03:57	7:03:57 PM	2	2	1	2	50	Done.bmp	mission	86933	Ready.bmp	M2	Blocks	40	NON	268957		0	0	2800	1	42	40	40	.	disp	List3	267469	6	1401	268870	blice	nonword@
SWR List A	2164	1	<?xml version="1.0"?>\n<Clock xmlns:dt="urn:schemas-microsoft-com:datatypes"><Description dt:dt="string">E-Prime Primary Realtime Clock</Description><StartTime><Timestamp dt:dt="int">0</Timestamp><DateUtc dt:dt="string">2010-07-29T19:03:57Z</DateUtc></StartTime><FrequencyChanges><FrequencyChange><Frequency dt:dt="r8">2793150000</Frequency><Timestamp dt:dt="r8">27741328848750</Timestamp><Current dt:dt="r8">0</Current><DateUtc dt:dt="string">2010-07-29T19:03:57Z</DateUtc></FrequencyChange></FrequencyChanges></Clock>\n	7/29/2010 2:03:57 PM	59.870	1	347821019	07-29-2010	14:03:57	7:03:57 PM	2	2	1	2	50	Done.bmp	mission	86933	Ready.bmp	M2	Blocks	41	HAR	273265		0	0	1000	1	43	41	41	.	disp	List3	271762	6	956	272718	first	word@
SWR List A	2164	1	<?xml version="1.0"?>\n<Clock xmlns:dt="urn:schemas-microsoft-com:datatypes"><Description dt:dt="string">E-Prime Primary Realtime Clock</Description><StartTime><Timestamp dt:dt="int">0</Timestamp><DateUtc dt:dt="string">2010-07-29T19:03:57Z</DateUtc></StartTime><FrequencyChanges><FrequencyChange><Frequency dt:dt="r8">2793150000</Frequency><Timestamp dt:dt="r8">27741328848750</Timestamp><Current dt:dt="r8">0</Current><DateUtc dt:dt="string">2010-07-29T19:03:57Z</DateUtc></FrequencyChange></FrequencyChanges></Clock>\n	7/29/2010 2:03:57 PM	59.870	1	347821019	07-29-2010	14:03:57	7:03:57 PM	2	2	1	2	50	Done.bmp	mission	86933	Ready.bmp	M2	Blocks	42	HCR	275771		0	0	1500	1	44	42	42	.	disp	List3	274267	6	1244	275511	home	word@
SWR List A	2164	1	<?xml version="1.0"?>\n<Clock xmlns:dt="urn:schemas-microsoft-com:datatypes"><Description dt:dt="string">E-Prime Primary Realtime Clock</Description><StartTime><Timestamp dt:dt="int">0</Timestamp><DateUtc dt:dt="string">2010-07-29T19:03:57Z</DateUtc></StartTime><FrequencyChanges><FrequencyChange><Frequency dt:dt="r8">2793150000</Frequency><Timestamp dt:dt="r8">27741328848750</Timestamp><Current dt:dt="r8">0</Current><DateUtc dt:dt="string">2010-07-29T19:03:57Z</DateUtc></FrequencyChange></FrequencyChanges></Clock>\n	7/29/2010 2:03:57 PM	59.870	1	347821019	07-29-2010	14:03:57	7:03:57 PM	2	2	1	2	50	Done.bmp	mission	86933	Ready.bmp	M2	Blocks	43	HCI	278760		0	0	2700	1	45	43	43	.	disp	List3	277257	6	821	278078	school	word@
SWR List A	2164	1	<?xml version="1.0"?>\n<Clock xmlns:dt="urn:schemas-microsoft-com:datatypes"><Description dt:dt="string">E-Prime Primary Realtime Clock</Description><StartTime><Timestamp dt:dt="int">0</Timestamp><DateUtc dt:dt="string">2010-07-29T19:03:57Z</DateUtc></StartTime><FrequencyChanges><FrequencyChange><Frequency dt:dt="r8">2793150000</Frequency><Timestamp dt:dt="r8">27741328848750</Timestamp><Current dt:dt="r8">0</Current><DateUtc dt:dt="string">2010-07-29T19:03:57Z</DateUtc></FrequencyChange></FrequencyChanges></Clock>\n	7/29/2010 2:03:57 PM	59.870	1	347821019	07-29-2010	14:03:57	7:03:57 PM	2	2	1	2	50	Done.bmp	mission	86933	Ready.bmp	M2	Blocks	44	NON	282970		0	0	2800	1	46	44	44	.	disp	List3	281466		0	0	nume	nonword@
SWR List A	2164	1	<?xml version="1.0"?>\n<Clock xmlns:dt="urn:schemas-microsoft-com:datatypes"><Description dt:dt="string">E-Prime Primary Realtime Clock</Description><StartTime><Timestamp dt:dt="int">0</Timestamp><DateUtc dt:dt="string">2010-07-29T19:03:57Z</DateUtc></StartTime><FrequencyChanges><FrequencyChange><Frequency dt:dt="r8">2793150000</Frequency><Timestamp dt:dt="r8">27741328848750</Timestamp><Current dt:dt="r8">0</Current><DateUtc dt:dt="string">2010-07-29T19:03:57Z</DateUtc></FrequencyChange></FrequencyChanges></Clock>\n	7/29/2010 2:03:57 PM	59.870	1	347821019	07-29-2010	14:03:57	7:03:57 PM	2	2	1	2	50	Done.bmp	mission	86933	Ready.bmp	M2	Blocks	45	HAR	287262		0	0	1900	1	47	45	45	.	disp	List3	285759	6	1159	286918	best	word@
SWR List A	2164	1	<?xml version="1.0"?>\n<Clock xmlns:dt="urn:schemas-microsoft-com:datatypes"><Description dt:dt="string">E-Prime Primary Realtime Clock</Description><StartTime><Timestamp dt:dt="int">0</Timestamp><DateUtc dt:dt="string">2010-07-29T19:03:57Z</DateUtc></StartTime><FrequencyChanges><FrequencyChange><Frequency dt:dt="r8">2793150000</Frequency><Timestamp dt:dt="r8">27741328848750</Timestamp><Current dt:dt="r8">0</Current><DateUtc dt:dt="string">2010-07-29T19:03:57Z</DateUtc></FrequencyChange></FrequencyChanges></Clock>\n	7/29/2010 2:03:57 PM	59.870	1	347821019	07-29-2010	14:03:57	7:03:57 PM	2	2	1	2	50	Done.bmp	mission	86933	Ready.bmp	M2	Blocks	46	HAR	290670		0	0	2200	1	48	46	46	.	disp	List3	289166	6	616	289782	your	word@
SWR List A	2164	1	<?xml version="1.0"?>\n<Clock xmlns:dt="urn:schemas-microsoft-com:datatypes"><Description dt:dt="string">E-Prime Primary Realtime Clock</Description><StartTime><Timestamp dt:dt="int">0</Timestamp><DateUtc dt:dt="string">2010-07-29T19:03:57Z</DateUtc></StartTime><FrequencyChanges><FrequencyChange><Frequency dt:dt="r8">2793150000</Frequency><Timestamp dt:dt="r8">27741328848750</Timestamp><Current dt:dt="r8">0</Current><DateUtc dt:dt="string">2010-07-29T19:03:57Z</DateUtc></FrequencyChange></FrequencyChanges></Clock>\n	7/29/2010 2:03:57 PM	59.870	1	347821019	07-29-2010	14:03:57	7:03:57 PM	2	2	1	2	50	Done.bmp	mission	86933	Ready.bmp	M2	Blocks	47	HAI	294361		0	0	1600	1	49	47	47	.	disp	List3	292858	6	740	293598	said	word@
SWR List A	2164	1	<?xml version="1.0"?>\n<Clock xmlns:dt="urn:schemas-microsoft-com:datatypes"><Description dt:dt="string">E-Prime Primary Realtime Clock</Description><StartTime><Timestamp dt:dt="int">0</Timestamp><DateUtc dt:dt="string">2010-07-29T19:03:57Z</DateUtc></StartTime><FrequencyChanges><FrequencyChange><Frequency dt:dt="r8">2793150000</Frequency><Timestamp dt:dt="r8">27741328848750</Timestamp><Current dt:dt="r8">0</Current><DateUtc dt:dt="string">2010-07-29T19:03:57Z</DateUtc></FrequencyChange></FrequencyChanges></Clock>\n	7/29/2010 2:03:57 PM	59.870	1	347821019	07-29-2010	14:03:57	7:03:57 PM	2	2	1	2	50	Done.bmp	mission	86933	Ready.bmp	M2	Blocks	48	HCR	297468		0	0	2600	1	50	48	48	.	disp	List3	295964	6	858	296822	case	word@
SWR List A	2164	1	<?xml version="1.0"?>\n<Clock xmlns:dt="urn:schemas-microsoft-com:datatypes"><Description dt:dt="string">E-Prime Primary Realtime Clock</Description><StartTime><Timestamp dt:dt="int">0</Timestamp><DateUtc dt:dt="string">2010-07-29T19:03:57Z</DateUtc></StartTime><FrequencyChanges><FrequencyChange><Frequency dt:dt="r8">2793150000</Frequency><Timestamp dt:dt="r8">27741328848750</Timestamp><Current dt:dt="r8">0</Current><DateUtc dt:dt="string">2010-07-29T19:03:57Z</DateUtc></FrequencyChange></FrequencyChanges></Clock>\n	7/29/2010 2:03:57 PM	59.870	1	347821019	07-29-2010	14:03:57	7:03:57 PM	2	2	1	2	50	Done.bmp	mission	86933	Ready.bmp	M2	Blocks	49	NON	301560		0	0	1000	1	51	49	49	.	disp	List3	300057	5	1206	301263	zoul	nonword@
SWR List A	2164	1	<?xml version="1.0"?>\n<Clock xmlns:dt="urn:schemas-microsoft-com:datatypes"><Description dt:dt="string">E-Prime Primary Realtime Clock</Description><StartTime><Timestamp dt:dt="int">0</Timestamp><DateUtc dt:dt="string">2010-07-29T19:03:57Z</DateUtc></StartTime><FrequencyChanges><FrequencyChange><Frequency dt:dt="r8">2793150000</Frequency><Timestamp dt:dt="r8">27741328848750</Timestamp><Current dt:dt="r8">0</Current><DateUtc dt:dt="string">2010-07-29T19:03:57Z</DateUtc></FrequencyChange></FrequencyChanges></Clock>\n	7/29/2010 2:03:57 PM	59.870	1	347821019	07-29-2010	14:03:57	7:03:57 PM	2	2	1	2	50	Done.bmp	mission	86933	Ready.bmp	M2	Blocks	50	HAR	304065		0	0	3000	1	52	50	50	.	disp	List3	302562		0	0	soon	word@
SWR List A	2164	1	<?xml version="1.0"?>\n<Clock xmlns:dt="urn:schemas-microsoft-com:datatypes"><Description dt:dt="string">E-Prime Primary Realtime Clock</Description><StartTime><Timestamp dt:dt="int">0</Timestamp><DateUtc dt:dt="string">2010-07-29T19:03:57Z</DateUtc></StartTime><FrequencyChanges><FrequencyChange><Frequency dt:dt="r8">2793150000</Frequency><Timestamp dt:dt="r8">27741328848750</Timestamp><Current dt:dt="r8">0</Current><DateUtc dt:dt="string">2010-07-29T19:03:57Z</DateUtc></FrequencyChange></FrequencyChanges></Clock>\n	7/29/2010 2:03:57 PM	59.870	1	347821019	07-29-2010	14:03:57	7:03:57 PM	3	3	1	3	50	Done.bmp	mission	402574	Ready2.bmp	M4	Blocks	1	NON	445723		0	0	1800	1	54	51	.	1	disp	List3	444219	5	1224	445443	bue	nonword@
SWR List A	2164	1	<?xml version="1.0"?>\n<Clock xmlns:dt="urn:schemas-microsoft-com:datatypes"><Description dt:dt="string">E-Prime Primary Realtime Clock</Description><StartTime><Timestamp dt:dt="int">0</Timestamp><DateUtc dt:dt="string">2010-07-29T19:03:57Z</DateUtc></StartTime><FrequencyChanges><FrequencyChange><Frequency dt:dt="r8">2793150000</Frequency><Timestamp dt:dt="r8">27741328848750</Timestamp><Current dt:dt="r8">0</Current><DateUtc dt:dt="string">2010-07-29T19:03:57Z</DateUtc></FrequencyChange></FrequencyChanges></Clock>\n	7/29/2010 2:03:57 PM	59.870	1	347821019	07-29-2010	14:03:57	7:03:57 PM	3	3	1	3	50	Done.bmp	mission	402574	Ready2.bmp	M4	Blocks	2	HAI	449013		0	0	1200	1	55	52	.	2	disp	List3	447510	6	997	448507	great	word@
SWR List A	2164	1	<?xml version="1.0"?>\n<Clock xmlns:dt="urn:schemas-microsoft-com:datatypes"><Description dt:dt="string">E-Prime Primary Realtime Clock</Description><StartTime><Timestamp dt:dt="int">0</Timestamp><DateUtc dt:dt="string">2010-07-29T19:03:57Z</DateUtc></StartTime><FrequencyChanges><FrequencyChange><Frequency dt:dt="r8">2793150000</Frequency><Timestamp dt:dt="r8">27741328848750</Timestamp><Current dt:dt="r8">0</Current><DateUtc dt:dt="string">2010-07-29T19:03:57Z</DateUtc></FrequencyChange></FrequencyChanges></Clock>\n	7/29/2010 2:03:57 PM	59.870	1	347821019	07-29-2010	14:03:57	7:03:57 PM	3	3	1	3	50	Done.bmp	mission	402574	Ready2.bmp	M4	Blocks	3	HAI	451719		0	0	3000	1	56	53	.	3	disp	List3	450216	5	954	451170	told	word@
SWR List A	2164	1	<?xml version="1.0"?>\n<Clock xmlns:dt="urn:schemas-microsoft-com:datatypes"><Description dt:dt="string">E-Prime Primary Realtime Clock</Description><StartTime><Timestamp dt:dt="int">0</Timestamp><DateUtc dt:dt="string">2010-07-29T19:03:57Z</DateUtc></StartTime><FrequencyChanges><FrequencyChange><Frequency dt:dt="r8">2793150000</Frequency><Timestamp dt:dt="r8">27741328848750</Timestamp><Current dt:dt="r8">0</Current><DateUtc dt:dt="string">2010-07-29T19:03:57Z</DateUtc></FrequencyChange></FrequencyChanges></Clock>\n	7/29/2010 2:03:57 PM	59.870	1	347821019	07-29-2010	14:03:57	7:03:57 PM	3	3	1	3	50	Done.bmp	mission	402574	Ready2.bmp	M4	Blocks	4	NON	456212		0	0	1300	1	57	54	.	4	disp	List3	454710		0	0	vird	nonword@
SWR List A	2164	1	<?xml version="1.0"?>\n<Clock xmlns:dt="urn:schemas-microsoft-com:datatypes"><Description dt:dt="string">E-Prime Primary Realtime Clock</Description><StartTime><Timestamp dt:dt="int">0</Timestamp><DateUtc dt:dt="string">2010-07-29T19:03:57Z</DateUtc></StartTime><FrequencyChanges><FrequencyChange><Frequency dt:dt="r8">2793150000</Frequency><Timestamp dt:dt="r8">27741328848750</Timestamp><Current dt:dt="r8">0</Current><DateUtc dt:dt="string">2010-07-29T19:03:57Z</DateUtc></FrequencyChange></FrequencyChanges></Clock>\n	7/29/2010 2:03:57 PM	59.870	1	347821019	07-29-2010	14:03:57	7:03:57 PM	3	3	1	3	50	Done.bmp	mission	402574	Ready2.bmp	M4	Blocks	5	HAR	459018		0	0	1500	1	58	55	.	5	disp	List3	457515	6	1079	458594	good	word@
SWR List A	2164	1	<?xml version="1.0"?>\n<Clock xmlns:dt="urn:schemas-microsoft-com:datatypes"><Description dt:dt="string">E-Prime Primary Realtime Clock</Description><StartTime><Timestamp dt:dt="int">0</Timestamp><DateUtc dt:dt="string">2010-07-29T19:03:57Z</DateUtc></StartTime><FrequencyChanges><FrequencyChange><Frequency dt:dt="r8">2793150000</Frequency><Timestamp dt:dt="r8">27741328848750</Timestamp><Current dt:dt="r8">0</Current><DateUtc dt:dt="string">2010-07-29T19:03:57Z</DateUtc></FrequencyChange></FrequencyChanges></Clock>\n	7/29/2010 2:03:57 PM	59.870	1	347821019	07-29-2010	14:03:57	7:03:57 PM	3	3	1	3	50	Done.bmp	mission	402574	Ready2.bmp	M4	Blocks	6	HCR	462025		0	0	3000	1	59	56	.	6	disp	List3	460521		0	0	face	word@
SWR List A	2164	1	<?xml version="1.0"?>\n<Clock xmlns:dt="urn:schemas-microsoft-com:datatypes"><Description dt:dt="string">E-Prime Primary Realtime Clock</Description><StartTime><Timestamp dt:dt="int">0</Timestamp><DateUtc dt:dt="string">2010-07-29T19:03:57Z</DateUtc></StartTime><FrequencyChanges><FrequencyChange><Frequency dt:dt="r8">2793150000</Frequency><Timestamp dt:dt="r8">27741328848750</Timestamp><Current dt:dt="r8">0</Current><DateUtc dt:dt="string">2010-07-29T19:03:57Z</DateUtc></FrequencyChange></FrequencyChanges></Clock>\n	7/29/2010 2:03:57 PM	59.870	1	347821019	07-29-2010	14:03:57	7:03:57 PM	3	3	1	3	50	Done.bmp	mission	402574	Ready2.bmp	M4	Blocks	7	HCI	466518		0	0	2700	1	60	57	.	7	disp	List3	465015	6	1067	466082	head	word@
SWR List A	2164	1	<?xml version="1.0"?>\n<Clock xmlns:dt="urn:schemas-microsoft-com:datatypes"><Description dt:dt="string">E-Prime Primary Realtime Clock</Description><StartTime><Timestamp dt:dt="int">0</Timestamp><DateUtc dt:dt="string">2010-07-29T19:03:57Z</DateUtc></StartTime><FrequencyChanges><FrequencyChange><Frequency dt:dt="r8">2793150000</Frequency><Timestamp dt:dt="r8">27741328848750</Timestamp><Current dt:dt="r8">0</Current><DateUtc dt:dt="string">2010-07-29T19:03:57Z</DateUtc></FrequencyChange></FrequencyChanges></Clock>\n	7/29/2010 2:03:57 PM	59.870	1	347821019	07-29-2010	14:03:57	7:03:57 PM	3	3	1	3	50	Done.bmp	mission	402574	Ready2.bmp	M4	Blocks	8	HCR	470710		0	0	1700	1	61	58	.	8	disp	List3	469224	6	898	470122	town	word@
SWR List A	2164	1	<?xml version="1.0"?>\n<Clock xmlns:dt="urn:schemas-microsoft-com:datatypes"><Description dt:dt="string">E-Prime Primary Realtime Clock</Description><StartTime><Timestamp dt:dt="int">0</Timestamp><DateUtc dt:dt="string">2010-07-29T19:03:57Z</DateUtc></StartTime><FrequencyChanges><FrequencyChange><Frequency dt:dt="r8">2793150000</Frequency><Timestamp dt:dt="r8">27741328848750</Timestamp><Current dt:dt="r8">0</Current><DateUtc dt:dt="string">2010-07-29T19:03:57Z</DateUtc></FrequencyChange></FrequencyChanges></Clock>\n	7/29/2010 2:03:57 PM	59.870	1	347821019	07-29-2010	14:03:57	7:03:57 PM	3	3	1	3	50	Done.bmp	mission	402574	Ready2.bmp	M4	Blocks	9	HCI	473917		0	0	3000	1	62	59	.	9	disp	List3	472414		0	0	gold	word@
SWR List A	2164	1	<?xml version="1.0"?>\n<Clock xmlns:dt="urn:schemas-microsoft-com:datatypes"><Description dt:dt="string">E-Prime Primary Realtime Clock</Description><StartTime><Timestamp dt:dt="int">0</Timestamp><DateUtc dt:dt="string">2010-07-29T19:03:57Z</DateUtc></StartTime><FrequencyChanges><FrequencyChange><Frequency dt:dt="r8">2793150000</Frequency><Timestamp dt:dt="r8">27741328848750</Timestamp><Current dt:dt="r8">0</Current><DateUtc dt:dt="string">2010-07-29T19:03:57Z</DateUtc></FrequencyChange></FrequencyChanges></Clock>\n	7/29/2010 2:03:57 PM	59.870	1	347821019	07-29-2010	14:03:57	7:03:57 PM	3	3	1	3	50	Done.bmp	mission	402574	Ready2.bmp	M4	Blocks	10	HAR	478410		0	0	2800	1	63	60	.	10	disp	List3	476924	5	910	477834	few	word@
SWR List A	2164	1	<?xml version="1.0"?>\n<Clock xmlns:dt="urn:schemas-microsoft-com:datatypes"><Description dt:dt="string">E-Prime Primary Realtime Clock</Description><StartTime><Timestamp dt:dt="int">0</Timestamp><DateUtc dt:dt="string">2010-07-29T19:03:57Z</DateUtc></StartTime><FrequencyChanges><FrequencyChange><Frequency dt:dt="r8">2793150000</Frequency><Timestamp dt:dt="r8">27741328848750</Timestamp><Current dt:dt="r8">0</Current><DateUtc dt:dt="string">2010-07-29T19:03:57Z</DateUtc></FrequencyChange></FrequencyChanges></Clock>\n	7/29/2010 2:03:57 PM	59.870	1	347821019	07-29-2010	14:03:57	7:03:57 PM	3	3	1	3	50	Done.bmp	mission	402574	Ready2.bmp	M4	Blocks	11	HAI	482720		0	0	11500	1	64	61	.	11	disp	List3	481216		0	0	last	word@
SWR List A	2164	1	<?xml version="1.0"?>\n<Clock xmlns:dt="urn:schemas-microsoft-com:datatypes"><Description dt:dt="string">E-Prime Primary Realtime Clock</Description><StartTime><Timestamp dt:dt="int">0</Timestamp><DateUtc dt:dt="string">2010-07-29T19:03:57Z</DateUtc></StartTime><FrequencyChanges><FrequencyChange><Frequency dt:dt="r8">2793150000</Frequency><Timestamp dt:dt="r8">27741328848750</Timestamp><Current dt:dt="r8">0</Current><DateUtc dt:dt="string">2010-07-29T19:03:57Z</DateUtc></FrequencyChange></FrequencyChanges></Clock>\n	7/29/2010 2:03:57 PM	59.870	1	347821019	07-29-2010	14:03:57	7:03:57 PM	3	3	1	3	50	Done.bmp	mission	402574	Ready2.bmp	M4	Blocks	12	NON	495714		0	0	1200	1	65	62	.	12	disp	List3	494211		0	0	chunch	nonword@
SWR List A	2164	1	<?xml version="1.0"?>\n<Clock xmlns:dt="urn:schemas-microsoft-com:datatypes"><Description dt:dt="string">E-Prime Primary Realtime Clock</Description><StartTime><Timestamp dt:dt="int">0</Timestamp><DateUtc dt:dt="string">2010-07-29T19:03:57Z</DateUtc></StartTime><FrequencyChanges><FrequencyChange><Frequency dt:dt="r8">2793150000</Frequency><Timestamp dt:dt="r8">27741328848750</Timestamp><Current dt:dt="r8">0</Current><DateUtc dt:dt="string">2010-07-29T19:03:57Z</DateUtc></FrequencyChange></FrequencyChanges></Clock>\n	7/29/2010 2:03:57 PM	59.870	1	347821019	07-29-2010	14:03:57	7:03:57 PM	3	3	1	3	50	Done.bmp	mission	402574	Ready2.bmp	M4	Blocks	13	HAR	498420		0	0	1600	1	66	63	.	13	disp	List3	496917	5	980	497897	each	word@
SWR List A	2164	1	<?xml version="1.0"?>\n<Clock xmlns:dt="urn:schemas-microsoft-com:datatypes"><Description dt:dt="string">E-Prime Primary Realtime Clock</Description><StartTime><Timestamp dt:dt="int">0</Timestamp><DateUtc dt:dt="string">2010-07-29T19:03:57Z</DateUtc></StartTime><FrequencyChanges><FrequencyChange><Frequency dt:dt="r8">2793150000</Frequency><Timestamp dt:dt="r8">27741328848750</Timestamp><Current dt:dt="r8">0</Current><DateUtc dt:dt="string">2010-07-29T19:03:57Z</DateUtc></FrequencyChange></FrequencyChanges></Clock>\n	7/29/2010 2:03:57 PM	59.870	1	347821019	07-29-2010	14:03:57	7:03:57 PM	3	3	1	3	50	Done.bmp	mission	402574	Ready2.bmp	M4	Blocks	14	NON	501510		0	0	2700	1	67	64	.	14	disp	List3	500024	6	697	500721	trin	nonword@
SWR List A	2164	1	<?xml version="1.0"?>\n<Clock xmlns:dt="urn:schemas-microsoft-com:datatypes"><Description dt:dt="string">E-Prime Primary Realtime Clock</Description><StartTime><Timestamp dt:dt="int">0</Timestamp><DateUtc dt:dt="string">2010-07-29T19:03:57Z</DateUtc></StartTime><FrequencyChanges><FrequencyChange><Frequency dt:dt="r8">2793150000</Frequency><Timestamp dt:dt="r8">27741328848750</Timestamp><Current dt:dt="r8">0</Current><DateUtc dt:dt="string">2010-07-29T19:03:57Z</DateUtc></FrequencyChange></FrequencyChanges></Clock>\n	7/29/2010 2:03:57 PM	59.870	1	347821019	07-29-2010	14:03:57	7:03:57 PM	3	3	1	3	50	Done.bmp	mission	402574	Ready2.bmp	M4	Blocks	15	HCR	505719		0	0	3000	1	68	65	.	15	disp	List3	504216	6	721	504937	hand	word@
SWR List A	2164	1	<?xml version="1.0"?>\n<Clock xmlns:dt="urn:schemas-microsoft-com:datatypes"><Description dt:dt="string">E-Prime Primary Realtime Clock</Description><StartTime><Timestamp dt:dt="int">0</Timestamp><DateUtc dt:dt="string">2010-07-29T19:03:57Z</DateUtc></StartTime><FrequencyChanges><FrequencyChange><Frequency dt:dt="r8">2793150000</Frequency><Timestamp dt:dt="r8">27741328848750</Timestamp><Current dt:dt="r8">0</Current><DateUtc dt:dt="string">2010-07-29T19:03:57Z</DateUtc></FrequencyChange></FrequencyChanges></Clock>\n	7/29/2010 2:03:57 PM	59.870	1	347821019	07-29-2010	14:03:57	7:03:57 PM	3	3	1	3	50	Done.bmp	mission	402574	Ready2.bmp	M4	Blocks	16	HCI	510213		0	0	2600	1	69	66	.	16	disp	List3	508710	5	691	509401	ball	word@
SWR List A	2164	1	<?xml version="1.0"?>\n<Clock xmlns:dt="urn:schemas-microsoft-com:datatypes"><Description dt:dt="string">E-Prime Primary Realtime Clock</Description><StartTime><Timestamp dt:dt="int">0</Timestamp><DateUtc dt:dt="string">2010-07-29T19:03:57Z</DateUtc></StartTime><FrequencyChanges><FrequencyChange><Frequency dt:dt="r8">2793150000</Frequency><Timestamp dt:dt="r8">27741328848750</Timestamp><Current dt:dt="r8">0</Current><DateUtc dt:dt="string">2010-07-29T19:03:57Z</DateUtc></FrequencyChange></FrequencyChanges></Clock>\n	7/29/2010 2:03:57 PM	59.870	1	347821019	07-29-2010	14:03:57	7:03:57 PM	3	3	1	3	50	Done.bmp	mission	402574	Ready2.bmp	M4	Blocks	17	HCI	514321		0	0	1500	1	70	67	.	17	disp	List3	512818	5	695	513513	heart	word@
SWR List A	2164	1	<?xml version="1.0"?>\n<Clock xmlns:dt="urn:schemas-microsoft-com:datatypes"><Description dt:dt="string">E-Prime Primary Realtime Clock</Description><StartTime><Timestamp dt:dt="int">0</Timestamp><DateUtc dt:dt="string">2010-07-29T19:03:57Z</DateUtc></StartTime><FrequencyChanges><FrequencyChange><Frequency dt:dt="r8">2793150000</Frequency><Timestamp dt:dt="r8">27741328848750</Timestamp><Current dt:dt="r8">0</Current><DateUtc dt:dt="string">2010-07-29T19:03:57Z</DateUtc></FrequencyChange></FrequencyChanges></Clock>\n	7/29/2010 2:03:57 PM	59.870	1	347821019	07-29-2010	14:03:57	7:03:57 PM	3	3	1	3	50	Done.bmp	mission	402574	Ready2.bmp	M4	Blocks	18	HCR	517311		0	0	2200	1	71	68	.	18	disp	List3	515825		0	0	man	word@
SWR List A	2164	1	<?xml version="1.0"?>\n<Clock xmlns:dt="urn:schemas-microsoft-com:datatypes"><Description dt:dt="string">E-Prime Primary Realtime Clock</Description><StartTime><Timestamp dt:dt="int">0</Timestamp><DateUtc dt:dt="string">2010-07-29T19:03:57Z</DateUtc></StartTime><FrequencyChanges><FrequencyChange><Frequency dt:dt="r8">2793150000</Frequency><Timestamp dt:dt="r8">27741328848750</Timestamp><Current dt:dt="r8">0</Current><DateUtc dt:dt="string">2010-07-29T19:03:57Z</DateUtc></FrequencyChange></FrequencyChanges></Clock>\n	7/29/2010 2:03:57 PM	59.870	1	347821019	07-29-2010	14:03:57	7:03:57 PM	3	3	1	3	50	Done.bmp	mission	402574	Ready2.bmp	M4	Blocks	19	NON	521019		0	0	1000	1	72	69	.	19	disp	List3	519516	5	829	520345	taib	nonword@
SWR List A	2164	1	<?xml version="1.0"?>\n<Clock xmlns:dt="urn:schemas-microsoft-com:datatypes"><Description dt:dt="string">E-Prime Primary Realtime Clock</Description><StartTime><Timestamp dt:dt="int">0</Timestamp><DateUtc dt:dt="string">2010-07-29T19:03:57Z</DateUtc></StartTime><FrequencyChanges><FrequencyChange><Frequency dt:dt="r8">2793150000</Frequency><Timestamp dt:dt="r8">27741328848750</Timestamp><Current dt:dt="r8">0</Current><DateUtc dt:dt="string">2010-07-29T19:03:57Z</DateUtc></FrequencyChange></FrequencyChanges></Clock>\n	7/29/2010 2:03:57 PM	59.870	1	347821019	07-29-2010	14:03:57	7:03:57 PM	3	3	1	3	50	Done.bmp	mission	402574	Ready2.bmp	M4	Blocks	20	HAI	523525		0	0	1400	1	73	70	.	20	disp	List3	522021	6	908	522929	all	word@
SWR List A	2164	1	<?xml version="1.0"?>\n<Clock xmlns:dt="urn:schemas-microsoft-com:datatypes"><Description dt:dt="string">E-Prime Primary Realtime Clock</Description><StartTime><Timestamp dt:dt="int">0</Timestamp><DateUtc dt:dt="string">2010-07-29T19:03:57Z</DateUtc></StartTime><FrequencyChanges><FrequencyChange><Frequency dt:dt="r8">2793150000</Frequency><Timestamp dt:dt="r8">27741328848750</Timestamp><Current dt:dt="r8">0</Current><DateUtc dt:dt="string">2010-07-29T19:03:57Z</DateUtc></FrequencyChange></FrequencyChanges></Clock>\n	7/29/2010 2:03:57 PM	59.870	1	347821019	07-29-2010	14:03:57	7:03:57 PM	3	3	1	3	50	Done.bmp	mission	402574	Ready2.bmp	M4	Blocks	21	HAI	526414		0	0	1400	1	74	71	.	21	disp	List3	524911	5	578	525489	some	word@
SWR List A	2164	1	<?xml version="1.0"?>\n<Clock xmlns:dt="urn:schemas-microsoft-com:datatypes"><Description dt:dt="string">E-Prime Primary Realtime Clock</Description><StartTime><Timestamp dt:dt="int">0</Timestamp><DateUtc dt:dt="string">2010-07-29T19:03:57Z</DateUtc></StartTime><FrequencyChanges><FrequencyChange><Frequency dt:dt="r8">2793150000</Frequency><Timestamp dt:dt="r8">27741328848750</Timestamp><Current dt:dt="r8">0</Current><DateUtc dt:dt="string">2010-07-29T19:03:57Z</DateUtc></FrequencyChange></FrequencyChanges></Clock>\n	7/29/2010 2:03:57 PM	59.870	1	347821019	07-29-2010	14:03:57	7:03:57 PM	3	3	1	3	50	Done.bmp	mission	402574	Ready2.bmp	M4	Blocks	22	HAR	529321		0	0	2000	1	75	72	.	22	disp	List3	527817	6	536	528353	came	word@
SWR List A	2164	1	<?xml version="1.0"?>\n<Clock xmlns:dt="urn:schemas-microsoft-com:datatypes"><Description dt:dt="string">E-Prime Primary Realtime Clock</Description><StartTime><Timestamp dt:dt="int">0</Timestamp><DateUtc dt:dt="string">2010-07-29T19:03:57Z</DateUtc></StartTime><FrequencyChanges><FrequencyChange><Frequency dt:dt="r8">2793150000</Frequency><Timestamp dt:dt="r8">27741328848750</Timestamp><Current dt:dt="r8">0</Current><DateUtc dt:dt="string">2010-07-29T19:03:57Z</DateUtc></FrequencyChange></FrequencyChanges></Clock>\n	7/29/2010 2:03:57 PM	59.870	1	347821019	07-29-2010	14:03:57	7:03:57 PM	3	3	1	3	50	Done.bmp	mission	402574	Ready2.bmp	M4	Blocks	23	HCI	532812		0	0	1200	1	76	73	.	23	disp	List3	531325	6	748	532073	sign	word@
SWR List A	2164	1	<?xml version="1.0"?>\n<Clock xmlns:dt="urn:schemas-microsoft-com:datatypes"><Description dt:dt="string">E-Prime Primary Realtime Clock</Description><StartTime><Timestamp dt:dt="int">0</Timestamp><DateUtc dt:dt="string">2010-07-29T19:03:57Z</DateUtc></StartTime><FrequencyChanges><FrequencyChange><Frequency dt:dt="r8">2793150000</Frequency><Timestamp dt:dt="r8">27741328848750</Timestamp><Current dt:dt="r8">0</Current><DateUtc dt:dt="string">2010-07-29T19:03:57Z</DateUtc></FrequencyChange></FrequencyChanges></Clock>\n	7/29/2010 2:03:57 PM	59.870	1	347821019	07-29-2010	14:03:57	7:03:57 PM	3	3	1	3	50	Done.bmp	mission	402574	Ready2.bmp	M4	Blocks	24	HCR	535517		0	0	1600	1	77	74	.	24	disp	List3	534014	6	635	534649	room	word@
SWR List A	2164	1	<?xml version="1.0"?>\n<Clock xmlns:dt="urn:schemas-microsoft-com:datatypes"><Description dt:dt="string">E-Prime Primary Realtime Clock</Description><StartTime><Timestamp dt:dt="int">0</Timestamp><DateUtc dt:dt="string">2010-07-29T19:03:57Z</DateUtc></StartTime><FrequencyChanges><FrequencyChange><Frequency dt:dt="r8">2793150000</Frequency><Timestamp dt:dt="r8">27741328848750</Timestamp><Current dt:dt="r8">0</Current><DateUtc dt:dt="string">2010-07-29T19:03:57Z</DateUtc></FrequencyChange></FrequencyChanges></Clock>\n	7/29/2010 2:03:57 PM	59.870	1	347821019	07-29-2010	14:03:57	7:03:57 PM	3	3	1	3	50	Done.bmp	mission	402574	Ready2.bmp	M4	Blocks	25	HAI	538624		0	0	1000	1	78	75	.	25	disp	List3	537121	6	560	537681	put	word@
SWR List A	2164	1	<?xml version="1.0"?>\n<Clock xmlns:dt="urn:schemas-microsoft-com:datatypes"><Description dt:dt="string">E-Prime Primary Realtime Clock</Description><StartTime><Timestamp dt:dt="int">0</Timestamp><DateUtc dt:dt="string">2010-07-29T19:03:57Z</DateUtc></StartTime><FrequencyChanges><FrequencyChange><Frequency dt:dt="r8">2793150000</Frequency><Timestamp dt:dt="r8">27741328848750</Timestamp><Current dt:dt="r8">0</Current><DateUtc dt:dt="string">2010-07-29T19:03:57Z</DateUtc></FrequencyChange></FrequencyChanges></Clock>\n	7/29/2010 2:03:57 PM	59.870	1	347821019	07-29-2010	14:03:57	7:03:57 PM	3	3	1	3	50	Done.bmp	mission	402574	Ready2.bmp	M4	Blocks	26	HCI	541113		0	0	12900	1	79	76	.	26	disp	List3	539610	6	551	540161	clothes	word@
SWR List A	2164	1	<?xml version="1.0"?>\n<Clock xmlns:dt="urn:schemas-microsoft-com:datatypes"><Description dt:dt="string">E-Prime Primary Realtime Clock</Description><StartTime><Timestamp dt:dt="int">0</Timestamp><DateUtc dt:dt="string">2010-07-29T19:03:57Z</DateUtc></StartTime><FrequencyChanges><FrequencyChange><Frequency dt:dt="r8">2793150000</Frequency><Timestamp dt:dt="r8">27741328848750</Timestamp><Current dt:dt="r8">0</Current><DateUtc dt:dt="string">2010-07-29T19:03:57Z</DateUtc></FrequencyChange></FrequencyChanges></Clock>\n	7/29/2010 2:03:57 PM	59.870	1	347821019	07-29-2010	14:03:57	7:03:57 PM	3	3	1	3	50	Done.bmp	mission	402574	Ready2.bmp	M4	Blocks	27	HCR	555511		0	0	1800	1	80	77	.	27	disp	List3	554024		0	0	court	word@
SWR List A	2164	1	<?xml version="1.0"?>\n<Clock xmlns:dt="urn:schemas-microsoft-com:datatypes"><Description dt:dt="string">E-Prime Primary Realtime Clock</Description><StartTime><Timestamp dt:dt="int">0</Timestamp><DateUtc dt:dt="string">2010-07-29T19:03:57Z</DateUtc></StartTime><FrequencyChanges><FrequencyChange><Frequency dt:dt="r8">2793150000</Frequency><Timestamp dt:dt="r8">27741328848750</Timestamp><Current dt:dt="r8">0</Current><DateUtc dt:dt="string">2010-07-29T19:03:57Z</DateUtc></FrequencyChange></FrequencyChanges></Clock>\n	7/29/2010 2:03:57 PM	59.870	1	347821019	07-29-2010	14:03:57	7:03:57 PM	3	3	1	3	50	Done.bmp	mission	402574	Ready2.bmp	M4	Blocks	28	NON	558818		0	0	1000	1	81	78	.	28	disp	List3	557315	5	1365	558680	hesh	nonword@
SWR List A	2164	1	<?xml version="1.0"?>\n<Clock xmlns:dt="urn:schemas-microsoft-com:datatypes"><Description dt:dt="string">E-Prime Primary Realtime Clock</Description><StartTime><Timestamp dt:dt="int">0</Timestamp><DateUtc dt:dt="string">2010-07-29T19:03:57Z</DateUtc></StartTime><FrequencyChanges><FrequencyChange><Frequency dt:dt="r8">2793150000</Frequency><Timestamp dt:dt="r8">27741328848750</Timestamp><Current dt:dt="r8">0</Current><DateUtc dt:dt="string">2010-07-29T19:03:57Z</DateUtc></FrequencyChange></FrequencyChanges></Clock>\n	7/29/2010 2:03:57 PM	59.870	1	347821019	07-29-2010	14:03:57	7:03:57 PM	3	3	1	3	50	Done.bmp	mission	402574	Ready2.bmp	M4	Blocks	29	HCI	561323		0	0	1900	1	82	79	.	29	disp	List3	559820	6	988	560808	blood	word@
SWR List A	2164	1	<?xml version="1.0"?>\n<Clock xmlns:dt="urn:schemas-microsoft-com:datatypes"><Description dt:dt="string">E-Prime Primary Realtime Clock</Description><StartTime><Timestamp dt:dt="int">0</Timestamp><DateUtc dt:dt="string">2010-07-29T19:03:57Z</DateUtc></StartTime><FrequencyChanges><FrequencyChange><Frequency dt:dt="r8">2793150000</Frequency><Timestamp dt:dt="r8">27741328848750</Timestamp><Current dt:dt="r8">0</Current><DateUtc dt:dt="string">2010-07-29T19:03:57Z</DateUtc></FrequencyChange></FrequencyChanges></Clock>\n	7/29/2010 2:03:57 PM	59.870	1	347821019	07-29-2010	14:03:57	7:03:57 PM	3	3	1	3	50	Done.bmp	mission	402574	Ready2.bmp	M4	Blocks	30	HAR	564714		0	0	1600	1	83	80	.	30	disp	List3	563211	6	1237	564448	been	word@
SWR List A	2164	1	<?xml version="1.0"?>\n<Clock xmlns:dt="urn:schemas-microsoft-com:datatypes"><Description dt:dt="string">E-Prime Primary Realtime Clock</Description><StartTime><Timestamp dt:dt="int">0</Timestamp><DateUtc dt:dt="string">2010-07-29T19:03:57Z</DateUtc></StartTime><FrequencyChanges><FrequencyChange><Frequency dt:dt="r8">2793150000</Frequency><Timestamp dt:dt="r8">27741328848750</Timestamp><Current dt:dt="r8">0</Current><DateUtc dt:dt="string">2010-07-29T19:03:57Z</DateUtc></FrequencyChange></FrequencyChanges></Clock>\n	7/29/2010 2:03:57 PM	59.870	1	347821019	07-29-2010	14:03:57	7:03:57 PM	3	3	1	3	50	Done.bmp	mission	402574	Ready2.bmp	M4	Blocks	31	HAI	567821		0	0	2900	1	84	81	.	31	disp	List3	566318	5	1002	567320	we	word@
SWR List A	2164	1	<?xml version="1.0"?>\n<Clock xmlns:dt="urn:schemas-microsoft-com:datatypes"><Description dt:dt="string">E-Prime Primary Realtime Clock</Description><StartTime><Timestamp dt:dt="int">0</Timestamp><DateUtc dt:dt="string">2010-07-29T19:03:57Z</DateUtc></StartTime><FrequencyChanges><FrequencyChange><Frequency dt:dt="r8">2793150000</Frequency><Timestamp dt:dt="r8">27741328848750</Timestamp><Current dt:dt="r8">0</Current><DateUtc dt:dt="string">2010-07-29T19:03:57Z</DateUtc></FrequencyChange></FrequencyChanges></Clock>\n	7/29/2010 2:03:57 PM	59.870	1	347821019	07-29-2010	14:03:57	7:03:57 PM	3	3	1	3	50	Done.bmp	mission	402574	Ready2.bmp	M4	Blocks	32	NON	572214		0	0	3000	1	85	82	.	32	disp	List3	570710	6	818	571528	aed	nonword@
SWR List A	2164	1	<?xml version="1.0"?>\n<Clock xmlns:dt="urn:schemas-microsoft-com:datatypes"><Description dt:dt="string">E-Prime Primary Realtime Clock</Description><StartTime><Timestamp dt:dt="int">0</Timestamp><DateUtc dt:dt="string">2010-07-29T19:03:57Z</DateUtc></StartTime><FrequencyChanges><FrequencyChange><Frequency dt:dt="r8">2793150000</Frequency><Timestamp dt:dt="r8">27741328848750</Timestamp><Current dt:dt="r8">0</Current><DateUtc dt:dt="string">2010-07-29T19:03:57Z</DateUtc></FrequencyChange></FrequencyChanges></Clock>\n	7/29/2010 2:03:57 PM	59.870	1	347821019	07-29-2010	14:03:57	7:03:57 PM	3	3	1	3	50	Done.bmp	mission	402574	Ready2.bmp	M4	Blocks	33	HCR	576723		0	0	2600	1	86	83	.	33	disp	List3	575220	6	1340	576560	bill	word@
SWR List A	2164	1	<?xml version="1.0"?>\n<Clock xmlns:dt="urn:schemas-microsoft-com:datatypes"><Description dt:dt="string">E-Prime Primary Realtime Clock</Description><StartTime><Timestamp dt:dt="int">0</Timestamp><DateUtc dt:dt="string">2010-07-29T19:03:57Z</DateUtc></StartTime><FrequencyChanges><FrequencyChange><Frequency dt:dt="r8">2793150000</Frequency><Timestamp dt:dt="r8">27741328848750</Timestamp><Current dt:dt="r8">0</Current><DateUtc dt:dt="string">2010-07-29T19:03:57Z</DateUtc></FrequencyChange></FrequencyChanges></Clock>\n	7/29/2010 2:03:57 PM	59.870	1	347821019	07-29-2010	14:03:57	7:03:57 PM	3	3	1	3	50	Done.bmp	mission	402574	Ready2.bmp	M4	Blocks	34	HCI	580816		0	0	12200	1	87	84	.	34	disp	List3	579312	6	808	580120	child	word@
SWR List A	2164	1	<?xml version="1.0"?>\n<Clock xmlns:dt="urn:schemas-microsoft-com:datatypes"><Description dt:dt="string">E-Prime Primary Realtime Clock</Description><StartTime><Timestamp dt:dt="int">0</Timestamp><DateUtc dt:dt="string">2010-07-29T19:03:57Z</DateUtc></StartTime><FrequencyChanges><FrequencyChange><Frequency dt:dt="r8">2793150000</Frequency><Timestamp dt:dt="r8">27741328848750</Timestamp><Current dt:dt="r8">0</Current><DateUtc dt:dt="string">2010-07-29T19:03:57Z</DateUtc></FrequencyChange></FrequencyChanges></Clock>\n	7/29/2010 2:03:57 PM	59.870	1	347821019	07-29-2010	14:03:57	7:03:57 PM	3	3	1	3	50	Done.bmp	mission	402574	Ready2.bmp	M4	Blocks	35	NON	594512		0	0	2300	1	88	85	.	35	disp	List3	593010		0	0	eaf	nonword@
SWR List A	2164	1	<?xml version="1.0"?>\n<Clock xmlns:dt="urn:schemas-microsoft-com:datatypes"><Description dt:dt="string">E-Prime Primary Realtime Clock</Description><StartTime><Timestamp dt:dt="int">0</Timestamp><DateUtc dt:dt="string">2010-07-29T19:03:57Z</DateUtc></StartTime><FrequencyChanges><FrequencyChange><Frequency dt:dt="r8">2793150000</Frequency><Timestamp dt:dt="r8">27741328848750</Timestamp><Current dt:dt="r8">0</Current><DateUtc dt:dt="string">2010-07-29T19:03:57Z</DateUtc></FrequencyChange></FrequencyChanges></Clock>\n	7/29/2010 2:03:57 PM	59.870	1	347821019	07-29-2010	14:03:57	7:03:57 PM	3	3	1	3	50	Done.bmp	mission	402574	Ready2.bmp	M4	Blocks	36	HAI	598320		0	0	3000	1	89	86	.	36	disp	List3	596817	6	870	597687	know	word@
SWR List A	2164	1	<?xml version="1.0"?>\n<Clock xmlns:dt="urn:schemas-microsoft-com:datatypes"><Description dt:dt="string">E-Prime Primary Realtime Clock</Description><StartTime><Timestamp dt:dt="int">0</Timestamp><DateUtc dt:dt="string">2010-07-29T19:03:57Z</DateUtc></StartTime><FrequencyChanges><FrequencyChange><Frequency dt:dt="r8">2793150000</Frequency><Timestamp dt:dt="r8">27741328848750</Timestamp><Current dt:dt="r8">0</Current><DateUtc dt:dt="string">2010-07-29T19:03:57Z</DateUtc></FrequencyChange></FrequencyChanges></Clock>\n	7/29/2010 2:03:57 PM	59.870	1	347821019	07-29-2010	14:03:57	7:03:57 PM	3	3	1	3	50	Done.bmp	mission	402574	Ready2.bmp	M4	Blocks	37	HAR	602813		0	0	1500	1	90	87	.	37	disp	List3	601310		0	0	went	word@
SWR List A	2164	1	<?xml version="1.0"?>\n<Clock xmlns:dt="urn:schemas-microsoft-com:datatypes"><Description dt:dt="string">E-Prime Primary Realtime Clock</Description><StartTime><Timestamp dt:dt="int">0</Timestamp><DateUtc dt:dt="string">2010-07-29T19:03:57Z</DateUtc></StartTime><FrequencyChanges><FrequencyChange><Frequency dt:dt="r8">2793150000</Frequency><Timestamp dt:dt="r8">27741328848750</Timestamp><Current dt:dt="r8">0</Current><DateUtc dt:dt="string">2010-07-29T19:03:57Z</DateUtc></FrequencyChange></FrequencyChanges></Clock>\n	7/29/2010 2:03:57 PM	59.870	1	347821019	07-29-2010	14:03:57	7:03:57 PM	3	3	1	3	50	Done.bmp	mission	402574	Ready2.bmp	M4	Blocks	38	HCR	605820		0	0	3000	1	91	88	.	38	disp	List3	604317	6	786	605103	car	word@
SWR List A	2164	1	<?xml version="1.0"?>\n<Clock xmlns:dt="urn:schemas-microsoft-com:datatypes"><Description dt:dt="string">E-Prime Primary Realtime Clock</Description><StartTime><Timestamp dt:dt="int">0</Timestamp><DateUtc dt:dt="string">2010-07-29T19:03:57Z</DateUtc></StartTime><FrequencyChanges><FrequencyChange><Frequency dt:dt="r8">2793150000</Frequency><Timestamp dt:dt="r8">27741328848750</Timestamp><Current dt:dt="r8">0</Current><DateUtc dt:dt="string">2010-07-29T19:03:57Z</DateUtc></FrequencyChange></FrequencyChanges></Clock>\n	7/29/2010 2:03:57 PM	59.870	1	347821019	07-29-2010	14:03:57	7:03:57 PM	3	3	1	3	50	Done.bmp	mission	402574	Ready2.bmp	M4	Blocks	39	HCI	610313		0	0	2400	1	92	89	.	39	disp	List3	608810		0	0	earth	word@
SWR List A	2164	1	<?xml version="1.0"?>\n<Clock xmlns:dt="urn:schemas-microsoft-com:datatypes"><Description dt:dt="string">E-Prime Primary Realtime Clock</Description><StartTime><Timestamp dt:dt="int">0</Timestamp><DateUtc dt:dt="string">2010-07-29T19:03:57Z</DateUtc></StartTime><FrequencyChanges><FrequencyChange><Frequency dt:dt="r8">2793150000</Frequency><Timestamp dt:dt="r8">27741328848750</Timestamp><Current dt:dt="r8">0</Current><DateUtc dt:dt="string">2010-07-29T19:03:57Z</DateUtc></FrequencyChange></FrequencyChanges></Clock>\n	7/29/2010 2:03:57 PM	59.870	1	347821019	07-29-2010	14:03:57	7:03:57 PM	3	3	1	3	50	Done.bmp	mission	402574	Ready2.bmp	M4	Blocks	40	NON	614222		0	0	1900	1	93	90	.	40	disp	List3	612718		0	0	bem	nonword@
SWR List A	2164	1	<?xml version="1.0"?>\n<Clock xmlns:dt="urn:schemas-microsoft-com:datatypes"><Description dt:dt="string">E-Prime Primary Realtime Clock</Description><StartTime><Timestamp dt:dt="int">0</Timestamp><DateUtc dt:dt="string">2010-07-29T19:03:57Z</DateUtc></StartTime><FrequencyChanges><FrequencyChange><Frequency dt:dt="r8">2793150000</Frequency><Timestamp dt:dt="r8">27741328848750</Timestamp><Current dt:dt="r8">0</Current><DateUtc dt:dt="string">2010-07-29T19:03:57Z</DateUtc></FrequencyChange></FrequencyChanges></Clock>\n	7/29/2010 2:03:57 PM	59.870	1	347821019	07-29-2010	14:03:57	7:03:57 PM	3	3	1	3	50	Done.bmp	mission	402574	Ready2.bmp	M4	Blocks	41	HAI	617612		0	0	1200	1	94	91	.	41	disp	List3	616110		0	0	these	word@
SWR List A	2164	1	<?xml version="1.0"?>\n<Clock xmlns:dt="urn:schemas-microsoft-com:datatypes"><Description dt:dt="string">E-Prime Primary Realtime Clock</Description><StartTime><Timestamp dt:dt="int">0</Timestamp><DateUtc dt:dt="string">2010-07-29T19:03:57Z</DateUtc></StartTime><FrequencyChanges><FrequencyChange><Frequency dt:dt="r8">2793150000</Frequency><Timestamp dt:dt="r8">27741328848750</Timestamp><Current dt:dt="r8">0</Current><DateUtc dt:dt="string">2010-07-29T19:03:57Z</DateUtc></FrequencyChange></FrequencyChanges></Clock>\n	7/29/2010 2:03:57 PM	59.870	1	347821019	07-29-2010	14:03:57	7:03:57 PM	3	3	1	3	50	Done.bmp	mission	402574	Ready2.bmp	M4	Blocks	42	HAR	620318		0	0	1400	1	95	92	.	42	disp	List3	618815	6	792	619607	tell	word@
SWR List A	2164	1	<?xml version="1.0"?>\n<Clock xmlns:dt="urn:schemas-microsoft-com:datatypes"><Description dt:dt="string">E-Prime Primary Realtime Clock</Description><StartTime><Timestamp dt:dt="int">0</Timestamp><DateUtc dt:dt="string">2010-07-29T19:03:57Z</DateUtc></StartTime><FrequencyChanges><FrequencyChange><Frequency dt:dt="r8">2793150000</Frequency><Timestamp dt:dt="r8">27741328848750</Timestamp><Current dt:dt="r8">0</Current><DateUtc dt:dt="string">2010-07-29T19:03:57Z</DateUtc></FrequencyChange></FrequencyChanges></Clock>\n	7/29/2010 2:03:57 PM	59.870	1	347821019	07-29-2010	14:03:57	7:03:57 PM	3	3	1	3	50	Done.bmp	mission	402574	Ready2.bmp	M4	Blocks	43	HAR	623224		0	0	1500	1	96	93	.	43	disp	List3	621721	5	686	622407	might	word@
SWR List A	2164	1	<?xml version="1.0"?>\n<Clock xmlns:dt="urn:schemas-microsoft-com:datatypes"><Description dt:dt="string">E-Prime Primary Realtime Clock</Description><StartTime><Timestamp dt:dt="int">0</Timestamp><DateUtc dt:dt="string">2010-07-29T19:03:57Z</DateUtc></StartTime><FrequencyChanges><FrequencyChange><Frequency dt:dt="r8">2793150000</Frequency><Timestamp dt:dt="r8">27741328848750</Timestamp><Current dt:dt="r8">0</Current><DateUtc dt:dt="string">2010-07-29T19:03:57Z</DateUtc></FrequencyChange></FrequencyChanges></Clock>\n	7/29/2010 2:03:57 PM	59.870	1	347821019	07-29-2010	14:03:57	7:03:57 PM	3	3	1	3	50	Done.bmp	mission	402574	Ready2.bmp	M4	Blocks	44	HCI	626214		0	0	2100	1	97	94	.	44	disp	List3	624711	6	1008	625719	bear	word@
SWR List A	2164	1	<?xml version="1.0"?>\n<Clock xmlns:dt="urn:schemas-microsoft-com:datatypes"><Description dt:dt="string">E-Prime Primary Realtime Clock</Description><StartTime><Timestamp dt:dt="int">0</Timestamp><DateUtc dt:dt="string">2010-07-29T19:03:57Z</DateUtc></StartTime><FrequencyChanges><FrequencyChange><Frequency dt:dt="r8">2793150000</Frequency><Timestamp dt:dt="r8">27741328848750</Timestamp><Current dt:dt="r8">0</Current><DateUtc dt:dt="string">2010-07-29T19:03:57Z</DateUtc></FrequencyChange></FrequencyChanges></Clock>\n	7/29/2010 2:03:57 PM	59.870	1	347821019	07-29-2010	14:03:57	7:03:57 PM	3	3	1	3	50	Done.bmp	mission	402574	Ready2.bmp	M4	Blocks	45	HCR	629822		0	0	1100	1	98	95	.	45	disp	List3	628319		0	0	door	word@
SWR List A	2164	1	<?xml version="1.0"?>\n<Clock xmlns:dt="urn:schemas-microsoft-com:datatypes"><Description dt:dt="string">E-Prime Primary Realtime Clock</Description><StartTime><Timestamp dt:dt="int">0</Timestamp><DateUtc dt:dt="string">2010-07-29T19:03:57Z</DateUtc></StartTime><FrequencyChanges><FrequencyChange><Frequency dt:dt="r8">2793150000</Frequency><Timestamp dt:dt="r8">27741328848750</Timestamp><Current dt:dt="r8">0</Current><DateUtc dt:dt="string">2010-07-29T19:03:57Z</DateUtc></FrequencyChange></FrequencyChanges></Clock>\n	7/29/2010 2:03:57 PM	59.870	1	347821019	07-29-2010	14:03:57	7:03:57 PM	3	3	1	3	50	Done.bmp	mission	402574	Ready2.bmp	M4	Blocks	46	HAI	632411		0	0	2700	1	99	96	.	46	disp	List3	630924	6	1099	632023	that	word@
SWR List A	2164	1	<?xml version="1.0"?>\n<Clock xmlns:dt="urn:schemas-microsoft-com:datatypes"><Description dt:dt="string">E-Prime Primary Realtime Clock</Description><StartTime><Timestamp dt:dt="int">0</Timestamp><DateUtc dt:dt="string">2010-07-29T19:03:57Z</DateUtc></StartTime><FrequencyChanges><FrequencyChange><Frequency dt:dt="r8">2793150000</Frequency><Timestamp dt:dt="r8">27741328848750</Timestamp><Current dt:dt="r8">0</Current><DateUtc dt:dt="string">2010-07-29T19:03:57Z</DateUtc></FrequencyChange></FrequencyChanges></Clock>\n	7/29/2010 2:03:57 PM	59.870	1	347821019	07-29-2010	14:03:57	7:03:57 PM	3	3	1	3	50	Done.bmp	mission	402574	Ready2.bmp	M4	Blocks	47	NON	636620		0	0	2900	1	100	97	.	47	disp	List3	635117	6	874	635991	yain	nonword@
SWR List A	2164	1	<?xml version="1.0"?>\n<Clock xmlns:dt="urn:schemas-microsoft-com:datatypes"><Description dt:dt="string">E-Prime Primary Realtime Clock</Description><StartTime><Timestamp dt:dt="int">0</Timestamp><DateUtc dt:dt="string">2010-07-29T19:03:57Z</DateUtc></StartTime><FrequencyChanges><FrequencyChange><Frequency dt:dt="r8">2793150000</Frequency><Timestamp dt:dt="r8">27741328848750</Timestamp><Current dt:dt="r8">0</Current><DateUtc dt:dt="string">2010-07-29T19:03:57Z</DateUtc></FrequencyChange></FrequencyChanges></Clock>\n	7/29/2010 2:03:57 PM	59.870	1	347821019	07-29-2010	14:03:57	7:03:57 PM	3	3	1	3	50	Done.bmp	mission	402574	Ready2.bmp	M4	Blocks	48	HCR	641013		0	0	1800	1	101	98	.	48	disp	List3	639510	6	553	640063	feet	word@
SWR List A	2164	1	<?xml version="1.0"?>\n<Clock xmlns:dt="urn:schemas-microsoft-com:datatypes"><Description dt:dt="string">E-Prime Primary Realtime Clock</Description><StartTime><Timestamp dt:dt="int">0</Timestamp><DateUtc dt:dt="string">2010-07-29T19:03:57Z</DateUtc></StartTime><FrequencyChanges><FrequencyChange><Frequency dt:dt="r8">2793150000</Frequency><Timestamp dt:dt="r8">27741328848750</Timestamp><Current dt:dt="r8">0</Current><DateUtc dt:dt="string">2010-07-29T19:03:57Z</DateUtc></FrequencyChange></FrequencyChanges></Clock>\n	7/29/2010 2:03:57 PM	59.870	1	347821019	07-29-2010	14:03:57	7:03:57 PM	3	3	1	3	50	Done.bmp	mission	402574	Ready2.bmp	M4	Blocks	49	HAR	644320		0	0	2200	1	102	99	.	49	disp	List3	642817	6	1029	643846	need	word@
SWR List A	2164	1	<?xml version="1.0"?>\n<Clock xmlns:dt="urn:schemas-microsoft-com:datatypes"><Description dt:dt="string">E-Prime Primary Realtime Clock</Description><StartTime><Timestamp dt:dt="int">0</Timestamp><DateUtc dt:dt="string">2010-07-29T19:03:57Z</DateUtc></StartTime><FrequencyChanges><FrequencyChange><Frequency dt:dt="r8">2793150000</Frequency><Timestamp dt:dt="r8">27741328848750</Timestamp><Current dt:dt="r8">0</Current><DateUtc dt:dt="string">2010-07-29T19:03:57Z</DateUtc></FrequencyChange></FrequencyChanges></Clock>\n	7/29/2010 2:03:57 PM	59.870	1	347821019	07-29-2010	14:03:57	7:03:57 PM	3	3	1	3	50	Done.bmp	mission	402574	Ready2.bmp	M4	Blocks	50	HAR	648011		0	0	1200	1	103	100	.	50	disp	List3	646525		0	0	like	word@
