ExperimentName	Subject	Session	Clock.Information	Display.RefreshRate	Group	RandomSeed	SessionDate	SessionTime	Block	CorrectAnswer	DecisionScreen	PracticeWAV	PracticeWAV.Cycle	PracticeWAV.Sample	Procedure	Response.ACC	Response.CRESP	Response.OnsetTime	Response.RESP	Response.RT	Response.RTTime	Running	Target.OnsetTime	Target.RT	Task	Task.Cycle	Task.Sample	Type	WAVfile
SentCompTask	157	1	<?xml version="1.0"?>\n<Clock xmlns:dt="urn:schemas-microsoft-com:datatypes"><Description dt:dt="string">E-Prime Primary Realtime Clock</Description><StartTime><Timestamp dt:dt="int">0</Timestamp><DateUtc dt:dt="string">2010-06-16T18:15:56Z</DateUtc></StartTime><FrequencyChanges><FrequencyChange><Frequency dt:dt="r8">3579545</Frequency><Timestamp dt:dt="r8">24445907824</Timestamp><Current dt:dt="r8">0</Current><DateUtc dt:dt="string">1969-12-31T20:46:40Z</DateUtc></FrequencyChange></FrequencyChanges></Clock>\n	62.401	1	-1323623217	06-16-2010	13:15:56	1	0	0	1	1	1	Sounds	0		0		0	0	PracticeWAV	160682	1697	.	.	.	.	the.wav@
SentCompTask	157	1	<?xml version="1.0"?>\n<Clock xmlns:dt="urn:schemas-microsoft-com:datatypes"><Description dt:dt="string">E-Prime Primary Realtime Clock</Description><StartTime><Timestamp dt:dt="int">0</Timestamp><DateUtc dt:dt="string">2010-06-16T18:15:56Z</DateUtc></StartTime><FrequencyChanges><FrequencyChange><Frequency dt:dt="r8">3579545</Frequency><Timestamp dt:dt="r8">24445907824</Timestamp><Current dt:dt="r8">0</Current><DateUtc dt:dt="string">1969-12-31T20:46:40Z</DateUtc></FrequencyChange></FrequencyChanges></Clock>\n	62.401	1	-1323623217	06-16-2010	13:15:56	2	0	0	2	1	2	Sounds	0		0		0	0	PracticeWAV	162396	1713	.	.	.	.	boy.wav@
SentCompTask	157	1	<?xml version="1.0"?>\n<Clock xmlns:dt="urn:schemas-microsoft-com:datatypes"><Description dt:dt="string">E-Prime Primary Realtime Clock</Description><StartTime><Timestamp dt:dt="int">0</Timestamp><DateUtc dt:dt="string">2010-06-16T18:15:56Z</DateUtc></StartTime><FrequencyChanges><FrequencyChange><Frequency dt:dt="r8">3579545</Frequency><Timestamp dt:dt="r8">24445907824</Timestamp><Current dt:dt="r8">0</Current><DateUtc dt:dt="string">1969-12-31T20:46:40Z</DateUtc></FrequencyChange></FrequencyChanges></Clock>\n	62.401	1	-1323623217	06-16-2010	13:15:56	3	0	0	3	1	3	Sounds	0		0		0	0	PracticeWAV	164159	2335	.	.	.	.	that.wav@
SentCompTask	157	1	<?xml version="1.0"?>\n<Clock xmlns:dt="urn:schemas-microsoft-com:datatypes"><Description dt:dt="string">E-Prime Primary Realtime Clock</Description><StartTime><Timestamp dt:dt="int">0</Timestamp><DateUtc dt:dt="string">2010-06-16T18:15:56Z</DateUtc></StartTime><FrequencyChanges><FrequencyChange><Frequency dt:dt="r8">3579545</Frequency><Timestamp dt:dt="r8">24445907824</Timestamp><Current dt:dt="r8">0</Current><DateUtc dt:dt="string">1969-12-31T20:46:40Z</DateUtc></FrequencyChange></FrequencyChanges></Clock>\n	62.401	1	-1323623217	06-16-2010	13:15:56	4	0	0	4	1	4	Sounds	0		0		0	0	PracticeWAV	166498	2550	.	.	.	.	the.wav@
SentCompTask	157	1	<?xml version="1.0"?>\n<Clock xmlns:dt="urn:schemas-microsoft-com:datatypes"><Description dt:dt="string">E-Prime Primary Realtime Clock</Description><StartTime><Timestamp dt:dt="int">0</Timestamp><DateUtc dt:dt="string">2010-06-16T18:15:56Z</DateUtc></StartTime><FrequencyChanges><FrequencyChange><Frequency dt:dt="r8">3579545</Frequency><Timestamp dt:dt="r8">24445907824</Timestamp><Current dt:dt="r8">0</Current><DateUtc dt:dt="string">1969-12-31T20:46:40Z</DateUtc></FrequencyChange></FrequencyChanges></Clock>\n	62.401	1	-1323623217	06-16-2010	13:15:56	5	0	0	5	1	5	Sounds	0		0		0	0	PracticeWAV	169062	2457	.	.	.	.	girl.wav@
SentCompTask	157	1	<?xml version="1.0"?>\n<Clock xmlns:dt="urn:schemas-microsoft-com:datatypes"><Description dt:dt="string">E-Prime Primary Realtime Clock</Description><StartTime><Timestamp dt:dt="int">0</Timestamp><DateUtc dt:dt="string">2010-06-16T18:15:56Z</DateUtc></StartTime><FrequencyChanges><FrequencyChange><Frequency dt:dt="r8">3579545</Frequency><Timestamp dt:dt="r8">24445907824</Timestamp><Current dt:dt="r8">0</Current><DateUtc dt:dt="string">1969-12-31T20:46:40Z</DateUtc></FrequencyChange></FrequencyChanges></Clock>\n	62.401	1	-1323623217	06-16-2010	13:15:56	6	0	0	6	1	6	Sounds	0		0		0	0	PracticeWAV	171529	2613	.	.	.	.	grabbed.wav@
SentCompTask	157	1	<?xml version="1.0"?>\n<Clock xmlns:dt="urn:schemas-microsoft-com:datatypes"><Description dt:dt="string">E-Prime Primary Realtime Clock</Description><StartTime><Timestamp dt:dt="int">0</Timestamp><DateUtc dt:dt="string">2010-06-16T18:15:56Z</DateUtc></StartTime><FrequencyChanges><FrequencyChange><Frequency dt:dt="r8">3579545</Frequency><Timestamp dt:dt="r8">24445907824</Timestamp><Current dt:dt="r8">0</Current><DateUtc dt:dt="string">1969-12-31T20:46:40Z</DateUtc></FrequencyChange></FrequencyChanges></Clock>\n	62.401	1	-1323623217	06-16-2010	13:15:56	7	0	0	7	1	7	Sounds	0		0		0	0	PracticeWAV	174221	1516	.	.	.	.	was.wav@
SentCompTask	157	1	<?xml version="1.0"?>\n<Clock xmlns:dt="urn:schemas-microsoft-com:datatypes"><Description dt:dt="string">E-Prime Primary Realtime Clock</Description><StartTime><Timestamp dt:dt="int">0</Timestamp><DateUtc dt:dt="string">2010-06-16T18:15:56Z</DateUtc></StartTime><FrequencyChanges><FrequencyChange><Frequency dt:dt="r8">3579545</Frequency><Timestamp dt:dt="r8">24445907824</Timestamp><Current dt:dt="r8">0</Current><DateUtc dt:dt="string">1969-12-31T20:46:40Z</DateUtc></FrequencyChange></FrequencyChanges></Clock>\n	62.401	1	-1323623217	06-16-2010	13:15:56	8	0	0	8	1	8	Sounds	0		0		0	0	PracticeWAV	175792	1801	.	.	.	.	wearing.wav@
SentCompTask	157	1	<?xml version="1.0"?>\n<Clock xmlns:dt="urn:schemas-microsoft-com:datatypes"><Description dt:dt="string">E-Prime Primary Realtime Clock</Description><StartTime><Timestamp dt:dt="int">0</Timestamp><DateUtc dt:dt="string">2010-06-16T18:15:56Z</DateUtc></StartTime><FrequencyChanges><FrequencyChange><Frequency dt:dt="r8">3579545</Frequency><Timestamp dt:dt="r8">24445907824</Timestamp><Current dt:dt="r8">0</Current><DateUtc dt:dt="string">1969-12-31T20:46:40Z</DateUtc></FrequencyChange></FrequencyChanges></Clock>\n	62.401	1	-1323623217	06-16-2010	13:15:56	9	0	0	9	1	9	Sounds	0		0		0	0	PracticeWAV	177602	1292	.	.	.	.	a.wav@
SentCompTask	157	1	<?xml version="1.0"?>\n<Clock xmlns:dt="urn:schemas-microsoft-com:datatypes"><Description dt:dt="string">E-Prime Primary Realtime Clock</Description><StartTime><Timestamp dt:dt="int">0</Timestamp><DateUtc dt:dt="string">2010-06-16T18:15:56Z</DateUtc></StartTime><FrequencyChanges><FrequencyChange><Frequency dt:dt="r8">3579545</Frequency><Timestamp dt:dt="r8">24445907824</Timestamp><Current dt:dt="r8">0</Current><DateUtc dt:dt="string">1969-12-31T20:46:40Z</DateUtc></FrequencyChange></FrequencyChanges></Clock>\n	62.401	1	-1323623217	06-16-2010	13:15:56	10	0	0	10	1	10	Sounds	0		0		0	0	PracticeWAV	178900	1898	.	.	.	.	bright.wav@
SentCompTask	157	1	<?xml version="1.0"?>\n<Clock xmlns:dt="urn:schemas-microsoft-com:datatypes"><Description dt:dt="string">E-Prime Primary Realtime Clock</Description><StartTime><Timestamp dt:dt="int">0</Timestamp><DateUtc dt:dt="string">2010-06-16T18:15:56Z</DateUtc></StartTime><FrequencyChanges><FrequencyChange><Frequency dt:dt="r8">3579545</Frequency><Timestamp dt:dt="r8">24445907824</Timestamp><Current dt:dt="r8">0</Current><DateUtc dt:dt="string">1969-12-31T20:46:40Z</DateUtc></FrequencyChange></FrequencyChanges></Clock>\n	62.401	1	-1323623217	06-16-2010	13:15:56	11	0	0	11	1	11	Sounds	0		0		0	0	PracticeWAV	180807	1526	.	.	.	.	blue.wav@
SentCompTask	157	1	<?xml version="1.0"?>\n<Clock xmlns:dt="urn:schemas-microsoft-com:datatypes"><Description dt:dt="string">E-Prime Primary Realtime Clock</Description><StartTime><Timestamp dt:dt="int">0</Timestamp><DateUtc dt:dt="string">2010-06-16T18:15:56Z</DateUtc></StartTime><FrequencyChanges><FrequencyChange><Frequency dt:dt="r8">3579545</Frequency><Timestamp dt:dt="r8">24445907824</Timestamp><Current dt:dt="r8">0</Current><DateUtc dt:dt="string">1969-12-31T20:46:40Z</DateUtc></FrequencyChange></FrequencyChanges></Clock>\n	62.401	1	-1323623217	06-16-2010	13:15:56	12	1	1	12	1	12	Sounds	0		184284	t	17465	201749	PracticeWAV	182393	1884	.	.	.	.	shirt.wav@
SentCompTask	157	1	<?xml version="1.0"?>\n<Clock xmlns:dt="urn:schemas-microsoft-com:datatypes"><Description dt:dt="string">E-Prime Primary Realtime Clock</Description><StartTime><Timestamp dt:dt="int">0</Timestamp><DateUtc dt:dt="string">2010-06-16T18:15:56Z</DateUtc></StartTime><FrequencyChanges><FrequencyChange><Frequency dt:dt="r8">3579545</Frequency><Timestamp dt:dt="r8">24445907824</Timestamp><Current dt:dt="r8">0</Current><DateUtc dt:dt="string">1969-12-31T20:46:40Z</DateUtc></FrequencyChange></FrequencyChanges></Clock>\n	62.401	1	-1323623217	06-16-2010	13:15:56	13	0	0	13	1	13	Sounds	0		184284	t	17465	201749	PracticeWAV	201766	16714	.	.	.	.	the.wav@
SentCompTask	157	1	<?xml version="1.0"?>\n<Clock xmlns:dt="urn:schemas-microsoft-com:datatypes"><Description dt:dt="string">E-Prime Primary Realtime Clock</Description><StartTime><Timestamp dt:dt="int">0</Timestamp><DateUtc dt:dt="string">2010-06-16T18:15:56Z</DateUtc></StartTime><FrequencyChanges><FrequencyChange><Frequency dt:dt="r8">3579545</Frequency><Timestamp dt:dt="r8">24445907824</Timestamp><Current dt:dt="r8">0</Current><DateUtc dt:dt="string">1969-12-31T20:46:40Z</DateUtc></FrequencyChange></FrequencyChanges></Clock>\n	62.401	1	-1323623217	06-16-2010	13:15:56	14	0	0	14	1	14	Sounds	0		184284	t	17465	201749	PracticeWAV	218494	992	.	.	.	.	man.wav@
SentCompTask	157	1	<?xml version="1.0"?>\n<Clock xmlns:dt="urn:schemas-microsoft-com:datatypes"><Description dt:dt="string">E-Prime Primary Realtime Clock</Description><StartTime><Timestamp dt:dt="int">0</Timestamp><DateUtc dt:dt="string">2010-06-16T18:15:56Z</DateUtc></StartTime><FrequencyChanges><FrequencyChange><Frequency dt:dt="r8">3579545</Frequency><Timestamp dt:dt="r8">24445907824</Timestamp><Current dt:dt="r8">0</Current><DateUtc dt:dt="string">1969-12-31T20:46:40Z</DateUtc></FrequencyChange></FrequencyChanges></Clock>\n	62.401	1	-1323623217	06-16-2010	13:15:56	15	0	0	15	1	15	Sounds	0		184284	t	17465	201749	PracticeWAV	219520	1497	.	.	.	.	who.wav@
SentCompTask	157	1	<?xml version="1.0"?>\n<Clock xmlns:dt="urn:schemas-microsoft-com:datatypes"><Description dt:dt="string">E-Prime Primary Realtime Clock</Description><StartTime><Timestamp dt:dt="int">0</Timestamp><DateUtc dt:dt="string">2010-06-16T18:15:56Z</DateUtc></StartTime><FrequencyChanges><FrequencyChange><Frequency dt:dt="r8">3579545</Frequency><Timestamp dt:dt="r8">24445907824</Timestamp><Current dt:dt="r8">0</Current><DateUtc dt:dt="string">1969-12-31T20:46:40Z</DateUtc></FrequencyChange></FrequencyChanges></Clock>\n	62.401	1	-1323623217	06-16-2010	13:15:56	16	0	0	16	1	16	Sounds	0		184284	t	17465	201749	PracticeWAV	221026	1431	.	.	.	.	adored.wav@
SentCompTask	157	1	<?xml version="1.0"?>\n<Clock xmlns:dt="urn:schemas-microsoft-com:datatypes"><Description dt:dt="string">E-Prime Primary Realtime Clock</Description><StartTime><Timestamp dt:dt="int">0</Timestamp><DateUtc dt:dt="string">2010-06-16T18:15:56Z</DateUtc></StartTime><FrequencyChanges><FrequencyChange><Frequency dt:dt="r8">3579545</Frequency><Timestamp dt:dt="r8">24445907824</Timestamp><Current dt:dt="r8">0</Current><DateUtc dt:dt="string">1969-12-31T20:46:40Z</DateUtc></FrequencyChange></FrequencyChanges></Clock>\n	62.401	1	-1323623217	06-16-2010	13:15:56	17	0	0	17	1	17	Sounds	0		184284	t	17465	201749	PracticeWAV	222468	1310	.	.	.	.	the.wav@
SentCompTask	157	1	<?xml version="1.0"?>\n<Clock xmlns:dt="urn:schemas-microsoft-com:datatypes"><Description dt:dt="string">E-Prime Primary Realtime Clock</Description><StartTime><Timestamp dt:dt="int">0</Timestamp><DateUtc dt:dt="string">2010-06-16T18:15:56Z</DateUtc></StartTime><FrequencyChanges><FrequencyChange><Frequency dt:dt="r8">3579545</Frequency><Timestamp dt:dt="r8">24445907824</Timestamp><Current dt:dt="r8">0</Current><DateUtc dt:dt="string">1969-12-31T20:46:40Z</DateUtc></FrequencyChange></FrequencyChanges></Clock>\n	62.401	1	-1323623217	06-16-2010	13:15:56	18	0	0	18	1	18	Sounds	0		184284	t	17465	201749	PracticeWAV	223846	1451	.	.	.	.	woman.wav@
SentCompTask	157	1	<?xml version="1.0"?>\n<Clock xmlns:dt="urn:schemas-microsoft-com:datatypes"><Description dt:dt="string">E-Prime Primary Realtime Clock</Description><StartTime><Timestamp dt:dt="int">0</Timestamp><DateUtc dt:dt="string">2010-06-16T18:15:56Z</DateUtc></StartTime><FrequencyChanges><FrequencyChange><Frequency dt:dt="r8">3579545</Frequency><Timestamp dt:dt="r8">24445907824</Timestamp><Current dt:dt="r8">0</Current><DateUtc dt:dt="string">1969-12-31T20:46:40Z</DateUtc></FrequencyChange></FrequencyChanges></Clock>\n	62.401	1	-1323623217	06-16-2010	13:15:56	19	0	0	19	1	19	Sounds	0		184284	t	17465	201749	PracticeWAV	225304	1541	.	.	.	.	was.wav@
SentCompTask	157	1	<?xml version="1.0"?>\n<Clock xmlns:dt="urn:schemas-microsoft-com:datatypes"><Description dt:dt="string">E-Prime Primary Realtime Clock</Description><StartTime><Timestamp dt:dt="int">0</Timestamp><DateUtc dt:dt="string">2010-06-16T18:15:56Z</DateUtc></StartTime><FrequencyChanges><FrequencyChange><Frequency dt:dt="r8">3579545</Frequency><Timestamp dt:dt="r8">24445907824</Timestamp><Current dt:dt="r8">0</Current><DateUtc dt:dt="string">1969-12-31T20:46:40Z</DateUtc></FrequencyChange></FrequencyChanges></Clock>\n	62.401	1	-1323623217	06-16-2010	13:15:56	20	0	0	20	1	20	Sounds	0		184284	t	17465	201749	PracticeWAV	226858	1704	.	.	.	.	late.wav@
SentCompTask	157	1	<?xml version="1.0"?>\n<Clock xmlns:dt="urn:schemas-microsoft-com:datatypes"><Description dt:dt="string">E-Prime Primary Realtime Clock</Description><StartTime><Timestamp dt:dt="int">0</Timestamp><DateUtc dt:dt="string">2010-06-16T18:15:56Z</DateUtc></StartTime><FrequencyChanges><FrequencyChange><Frequency dt:dt="r8">3579545</Frequency><Timestamp dt:dt="r8">24445907824</Timestamp><Current dt:dt="r8">0</Current><DateUtc dt:dt="string">1969-12-31T20:46:40Z</DateUtc></FrequencyChange></FrequencyChanges></Clock>\n	62.401	1	-1323623217	06-16-2010	13:15:56	21	0	0	21	1	21	Sounds	0		184284	t	17465	201749	PracticeWAV	228573	1609	.	.	.	.	for.wav@
SentCompTask	157	1	<?xml version="1.0"?>\n<Clock xmlns:dt="urn:schemas-microsoft-com:datatypes"><Description dt:dt="string">E-Prime Primary Realtime Clock</Description><StartTime><Timestamp dt:dt="int">0</Timestamp><DateUtc dt:dt="string">2010-06-16T18:15:56Z</DateUtc></StartTime><FrequencyChanges><FrequencyChange><Frequency dt:dt="r8">3579545</Frequency><Timestamp dt:dt="r8">24445907824</Timestamp><Current dt:dt="r8">0</Current><DateUtc dt:dt="string">1969-12-31T20:46:40Z</DateUtc></FrequencyChange></FrequencyChanges></Clock>\n	62.401	1	-1323623217	06-16-2010	13:15:56	22	0	0	22	1	22	Sounds	0		184284	t	17465	201749	PracticeWAV	230191	1514	.	.	.	.	a.wav@
SentCompTask	157	1	<?xml version="1.0"?>\n<Clock xmlns:dt="urn:schemas-microsoft-com:datatypes"><Description dt:dt="string">E-Prime Primary Realtime Clock</Description><StartTime><Timestamp dt:dt="int">0</Timestamp><DateUtc dt:dt="string">2010-06-16T18:15:56Z</DateUtc></StartTime><FrequencyChanges><FrequencyChange><Frequency dt:dt="r8">3579545</Frequency><Timestamp dt:dt="r8">24445907824</Timestamp><Current dt:dt="r8">0</Current><DateUtc dt:dt="string">1969-12-31T20:46:40Z</DateUtc></FrequencyChange></FrequencyChanges></Clock>\n	62.401	1	-1323623217	06-16-2010	13:15:56	23	0	0	23	1	23	Sounds	0		184284	t	17465	201749	PracticeWAV	231713	1275	.	.	.	.	big.wav@
SentCompTask	157	1	<?xml version="1.0"?>\n<Clock xmlns:dt="urn:schemas-microsoft-com:datatypes"><Description dt:dt="string">E-Prime Primary Realtime Clock</Description><StartTime><Timestamp dt:dt="int">0</Timestamp><DateUtc dt:dt="string">2010-06-16T18:15:56Z</DateUtc></StartTime><FrequencyChanges><FrequencyChange><Frequency dt:dt="r8">3579545</Frequency><Timestamp dt:dt="r8">24445907824</Timestamp><Current dt:dt="r8">0</Current><DateUtc dt:dt="string">1969-12-31T20:46:40Z</DateUtc></FrequencyChange></FrequencyChanges></Clock>\n	62.401	1	-1323623217	06-16-2010	13:15:56	24	1	1 	24	1	24	Sounds	0		234405	t	9386	243791	PracticeWAV	232995	1405	.	.	.	.	meeting.wav@
SentCompTask	157	1	<?xml version="1.0"?>\n<Clock xmlns:dt="urn:schemas-microsoft-com:datatypes"><Description dt:dt="string">E-Prime Primary Realtime Clock</Description><StartTime><Timestamp dt:dt="int">0</Timestamp><DateUtc dt:dt="string">2010-06-16T18:15:56Z</DateUtc></StartTime><FrequencyChanges><FrequencyChange><Frequency dt:dt="r8">3579545</Frequency><Timestamp dt:dt="r8">24445907824</Timestamp><Current dt:dt="r8">0</Current><DateUtc dt:dt="string">1969-12-31T20:46:40Z</DateUtc></FrequencyChange></FrequencyChanges></Clock>\n	62.401	1	-1323623217	06-16-2010	13:15:56	25	0	0	.	.	.	Sounds	0		234405	t	9386	243791	Task	257912	1562	1	1	1	SubjectObject	the.wav@
SentCompTask	157	1	<?xml version="1.0"?>\n<Clock xmlns:dt="urn:schemas-microsoft-com:datatypes"><Description dt:dt="string">E-Prime Primary Realtime Clock</Description><StartTime><Timestamp dt:dt="int">0</Timestamp><DateUtc dt:dt="string">2010-06-16T18:15:56Z</DateUtc></StartTime><FrequencyChanges><FrequencyChange><Frequency dt:dt="r8">3579545</Frequency><Timestamp dt:dt="r8">24445907824</Timestamp><Current dt:dt="r8">0</Current><DateUtc dt:dt="string">1969-12-31T20:46:40Z</DateUtc></FrequencyChange></FrequencyChanges></Clock>\n	62.401	1	-1323623217	06-16-2010	13:15:56	26	0	0	.	.	.	Sounds	0		234405	t	9386	243791	Task	259482	1733	2	1	2	SubjectObject	prince.wav@
SentCompTask	157	1	<?xml version="1.0"?>\n<Clock xmlns:dt="urn:schemas-microsoft-com:datatypes"><Description dt:dt="string">E-Prime Primary Realtime Clock</Description><StartTime><Timestamp dt:dt="int">0</Timestamp><DateUtc dt:dt="string">2010-06-16T18:15:56Z</DateUtc></StartTime><FrequencyChanges><FrequencyChange><Frequency dt:dt="r8">3579545</Frequency><Timestamp dt:dt="r8">24445907824</Timestamp><Current dt:dt="r8">0</Current><DateUtc dt:dt="string">1969-12-31T20:46:40Z</DateUtc></FrequencyChange></FrequencyChanges></Clock>\n	62.401	1	-1323623217	06-16-2010	13:15:56	27	0	0	.	.	.	Sounds	0		234405	t	9386	243791	Task	261228	1448	3	1	3	SubjectObject	that.wav@
SentCompTask	157	1	<?xml version="1.0"?>\n<Clock xmlns:dt="urn:schemas-microsoft-com:datatypes"><Description dt:dt="string">E-Prime Primary Realtime Clock</Description><StartTime><Timestamp dt:dt="int">0</Timestamp><DateUtc dt:dt="string">2010-06-16T18:15:56Z</DateUtc></StartTime><FrequencyChanges><FrequencyChange><Frequency dt:dt="r8">3579545</Frequency><Timestamp dt:dt="r8">24445907824</Timestamp><Current dt:dt="r8">0</Current><DateUtc dt:dt="string">1969-12-31T20:46:40Z</DateUtc></FrequencyChange></FrequencyChanges></Clock>\n	62.401	1	-1323623217	06-16-2010	13:15:56	28	0	0	.	.	.	Sounds	0		234405	t	9386	243791	Task	262687	1544	4	1	4	SubjectObject	the.wav@
SentCompTask	157	1	<?xml version="1.0"?>\n<Clock xmlns:dt="urn:schemas-microsoft-com:datatypes"><Description dt:dt="string">E-Prime Primary Realtime Clock</Description><StartTime><Timestamp dt:dt="int">0</Timestamp><DateUtc dt:dt="string">2010-06-16T18:15:56Z</DateUtc></StartTime><FrequencyChanges><FrequencyChange><Frequency dt:dt="r8">3579545</Frequency><Timestamp dt:dt="r8">24445907824</Timestamp><Current dt:dt="r8">0</Current><DateUtc dt:dt="string">1969-12-31T20:46:40Z</DateUtc></FrequencyChange></FrequencyChanges></Clock>\n	62.401	1	-1323623217	06-16-2010	13:15:56	29	0	0	.	.	.	Sounds	0		234405	t	9386	243791	Task	264241	1485	5	1	5	SubjectObject	king.wav@
SentCompTask	157	1	<?xml version="1.0"?>\n<Clock xmlns:dt="urn:schemas-microsoft-com:datatypes"><Description dt:dt="string">E-Prime Primary Realtime Clock</Description><StartTime><Timestamp dt:dt="int">0</Timestamp><DateUtc dt:dt="string">2010-06-16T18:15:56Z</DateUtc></StartTime><FrequencyChanges><FrequencyChange><Frequency dt:dt="r8">3579545</Frequency><Timestamp dt:dt="r8">24445907824</Timestamp><Current dt:dt="r8">0</Current><DateUtc dt:dt="string">1969-12-31T20:46:40Z</DateUtc></FrequencyChange></FrequencyChanges></Clock>\n	62.401	1	-1323623217	06-16-2010	13:15:56	30	0	0	.	.	.	Sounds	0		234405	t	9386	243791	Task	265763	1380	6	1	6	SubjectObject	taught.wav@
SentCompTask	157	1	<?xml version="1.0"?>\n<Clock xmlns:dt="urn:schemas-microsoft-com:datatypes"><Description dt:dt="string">E-Prime Primary Realtime Clock</Description><StartTime><Timestamp dt:dt="int">0</Timestamp><DateUtc dt:dt="string">2010-06-16T18:15:56Z</DateUtc></StartTime><FrequencyChanges><FrequencyChange><Frequency dt:dt="r8">3579545</Frequency><Timestamp dt:dt="r8">24445907824</Timestamp><Current dt:dt="r8">0</Current><DateUtc dt:dt="string">1969-12-31T20:46:40Z</DateUtc></FrequencyChange></FrequencyChanges></Clock>\n	62.401	1	-1323623217	06-16-2010	13:15:56	31	0	0	.	.	.	Sounds	0		234405	t	9386	243791	Task	267157	1739	7	1	7	SubjectObject	rode.wav@
SentCompTask	157	1	<?xml version="1.0"?>\n<Clock xmlns:dt="urn:schemas-microsoft-com:datatypes"><Description dt:dt="string">E-Prime Primary Realtime Clock</Description><StartTime><Timestamp dt:dt="int">0</Timestamp><DateUtc dt:dt="string">2010-06-16T18:15:56Z</DateUtc></StartTime><FrequencyChanges><FrequencyChange><Frequency dt:dt="r8">3579545</Frequency><Timestamp dt:dt="r8">24445907824</Timestamp><Current dt:dt="r8">0</Current><DateUtc dt:dt="string">1969-12-31T20:46:40Z</DateUtc></FrequencyChange></FrequencyChanges></Clock>\n	62.401	1	-1323623217	06-16-2010	13:15:56	32	0	0	.	.	.	Sounds	0		234405	t	9386	243791	Task	268904	1402	8	1	8	SubjectObject	the.wav@
SentCompTask	157	1	<?xml version="1.0"?>\n<Clock xmlns:dt="urn:schemas-microsoft-com:datatypes"><Description dt:dt="string">E-Prime Primary Realtime Clock</Description><StartTime><Timestamp dt:dt="int">0</Timestamp><DateUtc dt:dt="string">2010-06-16T18:15:56Z</DateUtc></StartTime><FrequencyChanges><FrequencyChange><Frequency dt:dt="r8">3579545</Frequency><Timestamp dt:dt="r8">24445907824</Timestamp><Current dt:dt="r8">0</Current><DateUtc dt:dt="string">1969-12-31T20:46:40Z</DateUtc></FrequencyChange></FrequencyChanges></Clock>\n	62.401	1	-1323623217	06-16-2010	13:15:56	33	0	0	.	.	.	Sounds	0		234405	t	9386	243791	Task	270314	1526	9	1	9	SubjectObject	car.wav@
SentCompTask	157	1	<?xml version="1.0"?>\n<Clock xmlns:dt="urn:schemas-microsoft-com:datatypes"><Description dt:dt="string">E-Prime Primary Realtime Clock</Description><StartTime><Timestamp dt:dt="int">0</Timestamp><DateUtc dt:dt="string">2010-06-16T18:15:56Z</DateUtc></StartTime><FrequencyChanges><FrequencyChange><Frequency dt:dt="r8">3579545</Frequency><Timestamp dt:dt="r8">24445907824</Timestamp><Current dt:dt="r8">0</Current><DateUtc dt:dt="string">1969-12-31T20:46:40Z</DateUtc></FrequencyChange></FrequencyChanges></Clock>\n	62.401	1	-1323623217	06-16-2010	13:15:56	34	0	0	.	.	.	Sounds	0		234405	t	9386	243791	Task	271948	1545	10	1	10	SubjectObject	to.wav@
SentCompTask	157	1	<?xml version="1.0"?>\n<Clock xmlns:dt="urn:schemas-microsoft-com:datatypes"><Description dt:dt="string">E-Prime Primary Realtime Clock</Description><StartTime><Timestamp dt:dt="int">0</Timestamp><DateUtc dt:dt="string">2010-06-16T18:15:56Z</DateUtc></StartTime><FrequencyChanges><FrequencyChange><Frequency dt:dt="r8">3579545</Frequency><Timestamp dt:dt="r8">24445907824</Timestamp><Current dt:dt="r8">0</Current><DateUtc dt:dt="string">1969-12-31T20:46:40Z</DateUtc></FrequencyChange></FrequencyChanges></Clock>\n	62.401	1	-1323623217	06-16-2010	13:15:56	35	0	0	.	.	.	Sounds	0		234405	t	9386	243791	Task	273502	1772	11	1	11	SubjectObject	the.wav@
SentCompTask	157	1	<?xml version="1.0"?>\n<Clock xmlns:dt="urn:schemas-microsoft-com:datatypes"><Description dt:dt="string">E-Prime Primary Realtime Clock</Description><StartTime><Timestamp dt:dt="int">0</Timestamp><DateUtc dt:dt="string">2010-06-16T18:15:56Z</DateUtc></StartTime><FrequencyChanges><FrequencyChange><Frequency dt:dt="r8">3579545</Frequency><Timestamp dt:dt="r8">24445907824</Timestamp><Current dt:dt="r8">0</Current><DateUtc dt:dt="string">1969-12-31T20:46:40Z</DateUtc></FrequencyChange></FrequencyChanges></Clock>\n	62.401	1	-1323623217	06-16-2010	13:15:56	36	5	1	.	.	.	Sounds	0		276883	f	7254	284137	Task	275281	1590	12	1	12	SubjectObject	palace.wav@
SentCompTask	157	1	<?xml version="1.0"?>\n<Clock xmlns:dt="urn:schemas-microsoft-com:datatypes"><Description dt:dt="string">E-Prime Primary Realtime Clock</Description><StartTime><Timestamp dt:dt="int">0</Timestamp><DateUtc dt:dt="string">2010-06-16T18:15:56Z</DateUtc></StartTime><FrequencyChanges><FrequencyChange><Frequency dt:dt="r8">3579545</Frequency><Timestamp dt:dt="r8">24445907824</Timestamp><Current dt:dt="r8">0</Current><DateUtc dt:dt="string">1969-12-31T20:46:40Z</DateUtc></FrequencyChange></FrequencyChanges></Clock>\n	62.401	1	-1323623217	06-16-2010	13:15:56	37	0	0	.	.	.	Sounds	0		276883	f	7254	284137	Task	284142	2475	13	1	13	SubjectObject	the.wav@
SentCompTask	157	1	<?xml version="1.0"?>\n<Clock xmlns:dt="urn:schemas-microsoft-com:datatypes"><Description dt:dt="string">E-Prime Primary Realtime Clock</Description><StartTime><Timestamp dt:dt="int">0</Timestamp><DateUtc dt:dt="string">2010-06-16T18:15:56Z</DateUtc></StartTime><FrequencyChanges><FrequencyChange><Frequency dt:dt="r8">3579545</Frequency><Timestamp dt:dt="r8">24445907824</Timestamp><Current dt:dt="r8">0</Current><DateUtc dt:dt="string">1969-12-31T20:46:40Z</DateUtc></FrequencyChange></FrequencyChanges></Clock>\n	62.401	1	-1323623217	06-16-2010	13:15:56	38	0	0	.	.	.	Sounds	0		276883	f	7254	284137	Task	286625	1975	14	1	14	SubjectObject	president.wav@
SentCompTask	157	1	<?xml version="1.0"?>\n<Clock xmlns:dt="urn:schemas-microsoft-com:datatypes"><Description dt:dt="string">E-Prime Primary Realtime Clock</Description><StartTime><Timestamp dt:dt="int">0</Timestamp><DateUtc dt:dt="string">2010-06-16T18:15:56Z</DateUtc></StartTime><FrequencyChanges><FrequencyChange><Frequency dt:dt="r8">3579545</Frequency><Timestamp dt:dt="r8">24445907824</Timestamp><Current dt:dt="r8">0</Current><DateUtc dt:dt="string">1969-12-31T20:46:40Z</DateUtc></FrequencyChange></FrequencyChanges></Clock>\n	62.401	1	-1323623217	06-16-2010	13:15:56	39	0	0	.	.	.	Sounds	0		276883	f	7254	284137	Task	288612	1768	15	1	15	SubjectObject	that.wav@
SentCompTask	157	1	<?xml version="1.0"?>\n<Clock xmlns:dt="urn:schemas-microsoft-com:datatypes"><Description dt:dt="string">E-Prime Primary Realtime Clock</Description><StartTime><Timestamp dt:dt="int">0</Timestamp><DateUtc dt:dt="string">2010-06-16T18:15:56Z</DateUtc></StartTime><FrequencyChanges><FrequencyChange><Frequency dt:dt="r8">3579545</Frequency><Timestamp dt:dt="r8">24445907824</Timestamp><Current dt:dt="r8">0</Current><DateUtc dt:dt="string">1969-12-31T20:46:40Z</DateUtc></FrequencyChange></FrequencyChanges></Clock>\n	62.401	1	-1323623217	06-16-2010	13:15:56	40	0	0	.	.	.	Sounds	0		276883	f	7254	284137	Task	290391	1345	16	1	16	SubjectObject	the.wav@
SentCompTask	157	1	<?xml version="1.0"?>\n<Clock xmlns:dt="urn:schemas-microsoft-com:datatypes"><Description dt:dt="string">E-Prime Primary Realtime Clock</Description><StartTime><Timestamp dt:dt="int">0</Timestamp><DateUtc dt:dt="string">2010-06-16T18:15:56Z</DateUtc></StartTime><FrequencyChanges><FrequencyChange><Frequency dt:dt="r8">3579545</Frequency><Timestamp dt:dt="r8">24445907824</Timestamp><Current dt:dt="r8">0</Current><DateUtc dt:dt="string">1969-12-31T20:46:40Z</DateUtc></FrequencyChange></FrequencyChanges></Clock>\n	62.401	1	-1323623217	06-16-2010	13:15:56	41	0	0	.	.	.	Sounds	0		276883	f	7254	284137	Task	291753	1933	17	1	17	SubjectObject	cashier.wav@
SentCompTask	157	1	<?xml version="1.0"?>\n<Clock xmlns:dt="urn:schemas-microsoft-com:datatypes"><Description dt:dt="string">E-Prime Primary Realtime Clock</Description><StartTime><Timestamp dt:dt="int">0</Timestamp><DateUtc dt:dt="string">2010-06-16T18:15:56Z</DateUtc></StartTime><FrequencyChanges><FrequencyChange><Frequency dt:dt="r8">3579545</Frequency><Timestamp dt:dt="r8">24445907824</Timestamp><Current dt:dt="r8">0</Current><DateUtc dt:dt="string">1969-12-31T20:46:40Z</DateUtc></FrequencyChange></FrequencyChanges></Clock>\n	62.401	1	-1323623217	06-16-2010	13:15:56	42	0	0	.	.	.	Sounds	0		276883	f	7254	284137	Task	293772	1681	18	1	18	SubjectObject	splashed.wav@
SentCompTask	157	1	<?xml version="1.0"?>\n<Clock xmlns:dt="urn:schemas-microsoft-com:datatypes"><Description dt:dt="string">E-Prime Primary Realtime Clock</Description><StartTime><Timestamp dt:dt="int">0</Timestamp><DateUtc dt:dt="string">2010-06-16T18:15:56Z</DateUtc></StartTime><FrequencyChanges><FrequencyChange><Frequency dt:dt="r8">3579545</Frequency><Timestamp dt:dt="r8">24445907824</Timestamp><Current dt:dt="r8">0</Current><DateUtc dt:dt="string">1969-12-31T20:46:40Z</DateUtc></FrequencyChange></FrequencyChanges></Clock>\n	62.401	1	-1323623217	06-16-2010	13:15:56	43	0	0	.	.	.	Sounds	0		276883	f	7254	284137	Task	295470	3045	19	1	19	SubjectObject	loved.wav@
SentCompTask	157	1	<?xml version="1.0"?>\n<Clock xmlns:dt="urn:schemas-microsoft-com:datatypes"><Description dt:dt="string">E-Prime Primary Realtime Clock</Description><StartTime><Timestamp dt:dt="int">0</Timestamp><DateUtc dt:dt="string">2010-06-16T18:15:56Z</DateUtc></StartTime><FrequencyChanges><FrequencyChange><Frequency dt:dt="r8">3579545</Frequency><Timestamp dt:dt="r8">24445907824</Timestamp><Current dt:dt="r8">0</Current><DateUtc dt:dt="string">1969-12-31T20:46:40Z</DateUtc></FrequencyChange></FrequencyChanges></Clock>\n	62.401	1	-1323623217	06-16-2010	13:15:56	44	0	0	.	.	.	Sounds	0		276883	f	7254	284137	Task	298531	1822	20	1	20	SubjectObject	the.wav@
SentCompTask	157	1	<?xml version="1.0"?>\n<Clock xmlns:dt="urn:schemas-microsoft-com:datatypes"><Description dt:dt="string">E-Prime Primary Realtime Clock</Description><StartTime><Timestamp dt:dt="int">0</Timestamp><DateUtc dt:dt="string">2010-06-16T18:15:56Z</DateUtc></StartTime><FrequencyChanges><FrequencyChange><Frequency dt:dt="r8">3579545</Frequency><Timestamp dt:dt="r8">24445907824</Timestamp><Current dt:dt="r8">0</Current><DateUtc dt:dt="string">1969-12-31T20:46:40Z</DateUtc></FrequencyChange></FrequencyChanges></Clock>\n	62.401	1	-1323623217	06-16-2010	13:15:56	45	0	0	.	.	.	Sounds	0		276883	f	7254	284137	Task	300357	1421	21	1	21	SubjectObject	flowers.wav@
SentCompTask	157	1	<?xml version="1.0"?>\n<Clock xmlns:dt="urn:schemas-microsoft-com:datatypes"><Description dt:dt="string">E-Prime Primary Realtime Clock</Description><StartTime><Timestamp dt:dt="int">0</Timestamp><DateUtc dt:dt="string">2010-06-16T18:15:56Z</DateUtc></StartTime><FrequencyChanges><FrequencyChange><Frequency dt:dt="r8">3579545</Frequency><Timestamp dt:dt="r8">24445907824</Timestamp><Current dt:dt="r8">0</Current><DateUtc dt:dt="string">1969-12-31T20:46:40Z</DateUtc></FrequencyChange></FrequencyChanges></Clock>\n	62.401	1	-1323623217	06-16-2010	13:15:56	46	0	0	.	.	.	Sounds	0		276883	f	7254	284137	Task	301784	2180	22	1	22	SubjectObject	in.wav@
SentCompTask	157	1	<?xml version="1.0"?>\n<Clock xmlns:dt="urn:schemas-microsoft-com:datatypes"><Description dt:dt="string">E-Prime Primary Realtime Clock</Description><StartTime><Timestamp dt:dt="int">0</Timestamp><DateUtc dt:dt="string">2010-06-16T18:15:56Z</DateUtc></StartTime><FrequencyChanges><FrequencyChange><Frequency dt:dt="r8">3579545</Frequency><Timestamp dt:dt="r8">24445907824</Timestamp><Current dt:dt="r8">0</Current><DateUtc dt:dt="string">1969-12-31T20:46:40Z</DateUtc></FrequencyChange></FrequencyChanges></Clock>\n	62.401	1	-1323623217	06-16-2010	13:15:56	47	0	0	.	.	.	Sounds	0		276883	f	7254	284137	Task	303979	1567	23	1	23	SubjectObject	the.wav@
SentCompTask	157	1	<?xml version="1.0"?>\n<Clock xmlns:dt="urn:schemas-microsoft-com:datatypes"><Description dt:dt="string">E-Prime Primary Realtime Clock</Description><StartTime><Timestamp dt:dt="int">0</Timestamp><DateUtc dt:dt="string">2010-06-16T18:15:56Z</DateUtc></StartTime><FrequencyChanges><FrequencyChange><Frequency dt:dt="r8">3579545</Frequency><Timestamp dt:dt="r8">24445907824</Timestamp><Current dt:dt="r8">0</Current><DateUtc dt:dt="string">1969-12-31T20:46:40Z</DateUtc></FrequencyChange></FrequencyChanges></Clock>\n	62.401	1	-1323623217	06-16-2010	13:15:56	48	5	1	.	.	.	Sounds	0		307536	t	8229	315765	Task	305549	1977	24	1	24	SubjectObject	pictures.wav@
SentCompTask	157	1	<?xml version="1.0"?>\n<Clock xmlns:dt="urn:schemas-microsoft-com:datatypes"><Description dt:dt="string">E-Prime Primary Realtime Clock</Description><StartTime><Timestamp dt:dt="int">0</Timestamp><DateUtc dt:dt="string">2010-06-16T18:15:56Z</DateUtc></StartTime><FrequencyChanges><FrequencyChange><Frequency dt:dt="r8">3579545</Frequency><Timestamp dt:dt="r8">24445907824</Timestamp><Current dt:dt="r8">0</Current><DateUtc dt:dt="string">1969-12-31T20:46:40Z</DateUtc></FrequencyChange></FrequencyChanges></Clock>\n	62.401	1	-1323623217	06-16-2010	13:15:56	49	0	0	.	.	.	Sounds	0		307536	t	8229	315765	Task	315772	1931	25	1	25	SubjectSubject	the.wav@
SentCompTask	157	1	<?xml version="1.0"?>\n<Clock xmlns:dt="urn:schemas-microsoft-com:datatypes"><Description dt:dt="string">E-Prime Primary Realtime Clock</Description><StartTime><Timestamp dt:dt="int">0</Timestamp><DateUtc dt:dt="string">2010-06-16T18:15:56Z</DateUtc></StartTime><FrequencyChanges><FrequencyChange><Frequency dt:dt="r8">3579545</Frequency><Timestamp dt:dt="r8">24445907824</Timestamp><Current dt:dt="r8">0</Current><DateUtc dt:dt="string">1969-12-31T20:46:40Z</DateUtc></FrequencyChange></FrequencyChanges></Clock>\n	62.401	1	-1323623217	06-16-2010	13:15:56	50	0	0	.	.	.	Sounds	0		307536	t	8229	315765	Task	317711	1688	26	1	26	SubjectSubject	monkey.wav@
SentCompTask	157	1	<?xml version="1.0"?>\n<Clock xmlns:dt="urn:schemas-microsoft-com:datatypes"><Description dt:dt="string">E-Prime Primary Realtime Clock</Description><StartTime><Timestamp dt:dt="int">0</Timestamp><DateUtc dt:dt="string">2010-06-16T18:15:56Z</DateUtc></StartTime><FrequencyChanges><FrequencyChange><Frequency dt:dt="r8">3579545</Frequency><Timestamp dt:dt="r8">24445907824</Timestamp><Current dt:dt="r8">0</Current><DateUtc dt:dt="string">1969-12-31T20:46:40Z</DateUtc></FrequencyChange></FrequencyChanges></Clock>\n	62.401	1	-1323623217	06-16-2010	13:15:56	51	0	0	.	.	.	Sounds	0		307536	t	8229	315765	Task	319409	1762	27	1	27	SubjectSubject	that.wav@
SentCompTask	157	1	<?xml version="1.0"?>\n<Clock xmlns:dt="urn:schemas-microsoft-com:datatypes"><Description dt:dt="string">E-Prime Primary Realtime Clock</Description><StartTime><Timestamp dt:dt="int">0</Timestamp><DateUtc dt:dt="string">2010-06-16T18:15:56Z</DateUtc></StartTime><FrequencyChanges><FrequencyChange><Frequency dt:dt="r8">3579545</Frequency><Timestamp dt:dt="r8">24445907824</Timestamp><Current dt:dt="r8">0</Current><DateUtc dt:dt="string">1969-12-31T20:46:40Z</DateUtc></FrequencyChange></FrequencyChanges></Clock>\n	62.401	1	-1323623217	06-16-2010	13:15:56	52	0	0	.	.	.	Sounds	0		307536	t	8229	315765	Task	321188	1971	28	1	28	SubjectSubject	followed.wav@
SentCompTask	157	1	<?xml version="1.0"?>\n<Clock xmlns:dt="urn:schemas-microsoft-com:datatypes"><Description dt:dt="string">E-Prime Primary Realtime Clock</Description><StartTime><Timestamp dt:dt="int">0</Timestamp><DateUtc dt:dt="string">2010-06-16T18:15:56Z</DateUtc></StartTime><FrequencyChanges><FrequencyChange><Frequency dt:dt="r8">3579545</Frequency><Timestamp dt:dt="r8">24445907824</Timestamp><Current dt:dt="r8">0</Current><DateUtc dt:dt="string">1969-12-31T20:46:40Z</DateUtc></FrequencyChange></FrequencyChanges></Clock>\n	62.401	1	-1323623217	06-16-2010	13:15:56	53	0	0	.	.	.	Sounds	0		307536	t	8229	315765	Task	323175	1609	29	1	29	SubjectSubject	the.wav@
SentCompTask	157	1	<?xml version="1.0"?>\n<Clock xmlns:dt="urn:schemas-microsoft-com:datatypes"><Description dt:dt="string">E-Prime Primary Realtime Clock</Description><StartTime><Timestamp dt:dt="int">0</Timestamp><DateUtc dt:dt="string">2010-06-16T18:15:56Z</DateUtc></StartTime><FrequencyChanges><FrequencyChange><Frequency dt:dt="r8">3579545</Frequency><Timestamp dt:dt="r8">24445907824</Timestamp><Current dt:dt="r8">0</Current><DateUtc dt:dt="string">1969-12-31T20:46:40Z</DateUtc></FrequencyChange></FrequencyChanges></Clock>\n	62.401	1	-1323623217	06-16-2010	13:15:56	54	0	0	.	.	.	Sounds	0		307536	t	8229	315765	Task	324793	1756	30	1	30	SubjectSubject	frog.wav@
SentCompTask	157	1	<?xml version="1.0"?>\n<Clock xmlns:dt="urn:schemas-microsoft-com:datatypes"><Description dt:dt="string">E-Prime Primary Realtime Clock</Description><StartTime><Timestamp dt:dt="int">0</Timestamp><DateUtc dt:dt="string">2010-06-16T18:15:56Z</DateUtc></StartTime><FrequencyChanges><FrequencyChange><Frequency dt:dt="r8">3579545</Frequency><Timestamp dt:dt="r8">24445907824</Timestamp><Current dt:dt="r8">0</Current><DateUtc dt:dt="string">1969-12-31T20:46:40Z</DateUtc></FrequencyChange></FrequencyChanges></Clock>\n	62.401	1	-1323623217	06-16-2010	13:15:56	55	0	0	.	.	.	Sounds	0		307536	t	8229	315765	Task	326556	1819	31	1	31	SubjectSubject	left.wav@
SentCompTask	157	1	<?xml version="1.0"?>\n<Clock xmlns:dt="urn:schemas-microsoft-com:datatypes"><Description dt:dt="string">E-Prime Primary Realtime Clock</Description><StartTime><Timestamp dt:dt="int">0</Timestamp><DateUtc dt:dt="string">2010-06-16T18:15:56Z</DateUtc></StartTime><FrequencyChanges><FrequencyChange><Frequency dt:dt="r8">3579545</Frequency><Timestamp dt:dt="r8">24445907824</Timestamp><Current dt:dt="r8">0</Current><DateUtc dt:dt="string">1969-12-31T20:46:40Z</DateUtc></FrequencyChange></FrequencyChanges></Clock>\n	62.401	1	-1323623217	06-16-2010	13:15:56	56	0	0	.	.	.	Sounds	0		307536	t	8229	315765	Task	328382	1754	32	1	32	SubjectSubject	the.wav@
SentCompTask	157	1	<?xml version="1.0"?>\n<Clock xmlns:dt="urn:schemas-microsoft-com:datatypes"><Description dt:dt="string">E-Prime Primary Realtime Clock</Description><StartTime><Timestamp dt:dt="int">0</Timestamp><DateUtc dt:dt="string">2010-06-16T18:15:56Z</DateUtc></StartTime><FrequencyChanges><FrequencyChange><Frequency dt:dt="r8">3579545</Frequency><Timestamp dt:dt="r8">24445907824</Timestamp><Current dt:dt="r8">0</Current><DateUtc dt:dt="string">1969-12-31T20:46:40Z</DateUtc></FrequencyChange></FrequencyChanges></Clock>\n	62.401	1	-1323623217	06-16-2010	13:15:56	57	0	0	.	.	.	Sounds	0		307536	t	8229	315765	Task	330177	1740	33	1	33	SubjectSubject	tree.wav@
SentCompTask	157	1	<?xml version="1.0"?>\n<Clock xmlns:dt="urn:schemas-microsoft-com:datatypes"><Description dt:dt="string">E-Prime Primary Realtime Clock</Description><StartTime><Timestamp dt:dt="int">0</Timestamp><DateUtc dt:dt="string">2010-06-16T18:15:56Z</DateUtc></StartTime><FrequencyChanges><FrequencyChange><Frequency dt:dt="r8">3579545</Frequency><Timestamp dt:dt="r8">24445907824</Timestamp><Current dt:dt="r8">0</Current><DateUtc dt:dt="string">1969-12-31T20:46:40Z</DateUtc></FrequencyChange></FrequencyChanges></Clock>\n	62.401	1	-1323623217	06-16-2010	13:15:56	58	0	0	.	.	.	Sounds	0		307536	t	8229	315765	Task	331924	1705	34	1	34	SubjectSubject	in.wav@
SentCompTask	157	1	<?xml version="1.0"?>\n<Clock xmlns:dt="urn:schemas-microsoft-com:datatypes"><Description dt:dt="string">E-Prime Primary Realtime Clock</Description><StartTime><Timestamp dt:dt="int">0</Timestamp><DateUtc dt:dt="string">2010-06-16T18:15:56Z</DateUtc></StartTime><FrequencyChanges><FrequencyChange><Frequency dt:dt="r8">3579545</Frequency><Timestamp dt:dt="r8">24445907824</Timestamp><Current dt:dt="r8">0</Current><DateUtc dt:dt="string">1969-12-31T20:46:40Z</DateUtc></FrequencyChange></FrequencyChanges></Clock>\n	62.401	1	-1323623217	06-16-2010	13:15:56	59	0	0	.	.	.	Sounds	0		307536	t	8229	315765	Task	333638	1686	35	1	35	SubjectSubject	a.wav@
SentCompTask	157	1	<?xml version="1.0"?>\n<Clock xmlns:dt="urn:schemas-microsoft-com:datatypes"><Description dt:dt="string">E-Prime Primary Realtime Clock</Description><StartTime><Timestamp dt:dt="int">0</Timestamp><DateUtc dt:dt="string">2010-06-16T18:15:56Z</DateUtc></StartTime><FrequencyChanges><FrequencyChange><Frequency dt:dt="r8">3579545</Frequency><Timestamp dt:dt="r8">24445907824</Timestamp><Current dt:dt="r8">0</Current><DateUtc dt:dt="string">1969-12-31T20:46:40Z</DateUtc></FrequencyChange></FrequencyChanges></Clock>\n	62.401	1	-1323623217	06-16-2010	13:15:56	60	5	1	.	.	.	Sounds	0		336987	f	8438	345425	Task	335337	1644	36	1	36	SubjectSubject	hurry.wav@
SentCompTask	157	1	<?xml version="1.0"?>\n<Clock xmlns:dt="urn:schemas-microsoft-com:datatypes"><Description dt:dt="string">E-Prime Primary Realtime Clock</Description><StartTime><Timestamp dt:dt="int">0</Timestamp><DateUtc dt:dt="string">2010-06-16T18:15:56Z</DateUtc></StartTime><FrequencyChanges><FrequencyChange><Frequency dt:dt="r8">3579545</Frequency><Timestamp dt:dt="r8">24445907824</Timestamp><Current dt:dt="r8">0</Current><DateUtc dt:dt="string">1969-12-31T20:46:40Z</DateUtc></FrequencyChange></FrequencyChanges></Clock>\n	62.401	1	-1323623217	06-16-2010	13:15:56	61	0	0	.	.	.	Sounds	0		336987	f	8438	345425	Task	345431	2160	37	1	37	SubjectSubject	the.wav@
SentCompTask	157	1	<?xml version="1.0"?>\n<Clock xmlns:dt="urn:schemas-microsoft-com:datatypes"><Description dt:dt="string">E-Prime Primary Realtime Clock</Description><StartTime><Timestamp dt:dt="int">0</Timestamp><DateUtc dt:dt="string">2010-06-16T18:15:56Z</DateUtc></StartTime><FrequencyChanges><FrequencyChange><Frequency dt:dt="r8">3579545</Frequency><Timestamp dt:dt="r8">24445907824</Timestamp><Current dt:dt="r8">0</Current><DateUtc dt:dt="string">1969-12-31T20:46:40Z</DateUtc></FrequencyChange></FrequencyChanges></Clock>\n	62.401	1	-1323623217	06-16-2010	13:15:56	62	0	0	.	.	.	Sounds	0		336987	f	8438	345425	Task	347594	1931	38	1	38	SubjectSubject	dancer.wav@
SentCompTask	157	1	<?xml version="1.0"?>\n<Clock xmlns:dt="urn:schemas-microsoft-com:datatypes"><Description dt:dt="string">E-Prime Primary Realtime Clock</Description><StartTime><Timestamp dt:dt="int">0</Timestamp><DateUtc dt:dt="string">2010-06-16T18:15:56Z</DateUtc></StartTime><FrequencyChanges><FrequencyChange><Frequency dt:dt="r8">3579545</Frequency><Timestamp dt:dt="r8">24445907824</Timestamp><Current dt:dt="r8">0</Current><DateUtc dt:dt="string">1969-12-31T20:46:40Z</DateUtc></FrequencyChange></FrequencyChanges></Clock>\n	62.401	1	-1323623217	06-16-2010	13:15:56	63	0	0	.	.	.	Sounds	0		336987	f	8438	345425	Task	349533	1177	39	1	39	SubjectSubject	that.wav@
SentCompTask	157	1	<?xml version="1.0"?>\n<Clock xmlns:dt="urn:schemas-microsoft-com:datatypes"><Description dt:dt="string">E-Prime Primary Realtime Clock</Description><StartTime><Timestamp dt:dt="int">0</Timestamp><DateUtc dt:dt="string">2010-06-16T18:15:56Z</DateUtc></StartTime><FrequencyChanges><FrequencyChange><Frequency dt:dt="r8">3579545</Frequency><Timestamp dt:dt="r8">24445907824</Timestamp><Current dt:dt="r8">0</Current><DateUtc dt:dt="string">1969-12-31T20:46:40Z</DateUtc></FrequencyChange></FrequencyChanges></Clock>\n	62.401	1	-1323623217	06-16-2010	13:15:56	64	0	0	.	.	.	Sounds	0		336987	f	8438	345425	Task	350735	2010	40	1	40	SubjectSubject	shoved.wav@
SentCompTask	157	1	<?xml version="1.0"?>\n<Clock xmlns:dt="urn:schemas-microsoft-com:datatypes"><Description dt:dt="string">E-Prime Primary Realtime Clock</Description><StartTime><Timestamp dt:dt="int">0</Timestamp><DateUtc dt:dt="string">2010-06-16T18:15:56Z</DateUtc></StartTime><FrequencyChanges><FrequencyChange><Frequency dt:dt="r8">3579545</Frequency><Timestamp dt:dt="r8">24445907824</Timestamp><Current dt:dt="r8">0</Current><DateUtc dt:dt="string">1969-12-31T20:46:40Z</DateUtc></FrequencyChange></FrequencyChanges></Clock>\n	62.401	1	-1323623217	06-16-2010	13:15:56	65	0	0	.	.	.	Sounds	0		336987	f	8438	345425	Task	352754	1754	41	1	41	SubjectSubject	the.wav@
SentCompTask	157	1	<?xml version="1.0"?>\n<Clock xmlns:dt="urn:schemas-microsoft-com:datatypes"><Description dt:dt="string">E-Prime Primary Realtime Clock</Description><StartTime><Timestamp dt:dt="int">0</Timestamp><DateUtc dt:dt="string">2010-06-16T18:15:56Z</DateUtc></StartTime><FrequencyChanges><FrequencyChange><Frequency dt:dt="r8">3579545</Frequency><Timestamp dt:dt="r8">24445907824</Timestamp><Current dt:dt="r8">0</Current><DateUtc dt:dt="string">1969-12-31T20:46:40Z</DateUtc></FrequencyChange></FrequencyChanges></Clock>\n	62.401	1	-1323623217	06-16-2010	13:15:56	66	0	0	.	.	.	Sounds	0		336987	f	8438	345425	Task	354516	1888	42	1	42	SubjectSubject	baker.wav@
SentCompTask	157	1	<?xml version="1.0"?>\n<Clock xmlns:dt="urn:schemas-microsoft-com:datatypes"><Description dt:dt="string">E-Prime Primary Realtime Clock</Description><StartTime><Timestamp dt:dt="int">0</Timestamp><DateUtc dt:dt="string">2010-06-16T18:15:56Z</DateUtc></StartTime><FrequencyChanges><FrequencyChange><Frequency dt:dt="r8">3579545</Frequency><Timestamp dt:dt="r8">24445907824</Timestamp><Current dt:dt="r8">0</Current><DateUtc dt:dt="string">1969-12-31T20:46:40Z</DateUtc></FrequencyChange></FrequencyChanges></Clock>\n	62.401	1	-1323623217	06-16-2010	13:15:56	67	0	0	.	.	.	Sounds	0		336987	f	8438	345425	Task	356407	1661	43	1	43	SubjectSubject	painted.wav@
SentCompTask	157	1	<?xml version="1.0"?>\n<Clock xmlns:dt="urn:schemas-microsoft-com:datatypes"><Description dt:dt="string">E-Prime Primary Realtime Clock</Description><StartTime><Timestamp dt:dt="int">0</Timestamp><DateUtc dt:dt="string">2010-06-16T18:15:56Z</DateUtc></StartTime><FrequencyChanges><FrequencyChange><Frequency dt:dt="r8">3579545</Frequency><Timestamp dt:dt="r8">24445907824</Timestamp><Current dt:dt="r8">0</Current><DateUtc dt:dt="string">1969-12-31T20:46:40Z</DateUtc></FrequencyChange></FrequencyChanges></Clock>\n	62.401	1	-1323623217	06-16-2010	13:15:56	68	0	0	.	.	.	Sounds	0		336987	f	8438	345425	Task	358074	1837	44	1	44	SubjectSubject	the.wav@
SentCompTask	157	1	<?xml version="1.0"?>\n<Clock xmlns:dt="urn:schemas-microsoft-com:datatypes"><Description dt:dt="string">E-Prime Primary Realtime Clock</Description><StartTime><Timestamp dt:dt="int">0</Timestamp><DateUtc dt:dt="string">2010-06-16T18:15:56Z</DateUtc></StartTime><FrequencyChanges><FrequencyChange><Frequency dt:dt="r8">3579545</Frequency><Timestamp dt:dt="r8">24445907824</Timestamp><Current dt:dt="r8">0</Current><DateUtc dt:dt="string">1969-12-31T20:46:40Z</DateUtc></FrequencyChange></FrequencyChanges></Clock>\n	62.401	1	-1323623217	06-16-2010	13:15:56	69	0	0	.	.	.	Sounds	0		336987	f	8438	345425	Task	359981	1549	45	1	45	SubjectSubject	sign.wav@
SentCompTask	157	1	<?xml version="1.0"?>\n<Clock xmlns:dt="urn:schemas-microsoft-com:datatypes"><Description dt:dt="string">E-Prime Primary Realtime Clock</Description><StartTime><Timestamp dt:dt="int">0</Timestamp><DateUtc dt:dt="string">2010-06-16T18:15:56Z</DateUtc></StartTime><FrequencyChanges><FrequencyChange><Frequency dt:dt="r8">3579545</Frequency><Timestamp dt:dt="r8">24445907824</Timestamp><Current dt:dt="r8">0</Current><DateUtc dt:dt="string">1969-12-31T20:46:40Z</DateUtc></FrequencyChange></FrequencyChanges></Clock>\n	62.401	1	-1323623217	06-16-2010	13:15:56	70	0	0	.	.	.	Sounds	0		336987	f	8438	345425	Task	361535	1436	46	1	46	SubjectSubject	before.wav@
SentCompTask	157	1	<?xml version="1.0"?>\n<Clock xmlns:dt="urn:schemas-microsoft-com:datatypes"><Description dt:dt="string">E-Prime Primary Realtime Clock</Description><StartTime><Timestamp dt:dt="int">0</Timestamp><DateUtc dt:dt="string">2010-06-16T18:15:56Z</DateUtc></StartTime><FrequencyChanges><FrequencyChange><Frequency dt:dt="r8">3579545</Frequency><Timestamp dt:dt="r8">24445907824</Timestamp><Current dt:dt="r8">0</Current><DateUtc dt:dt="string">1969-12-31T20:46:40Z</DateUtc></FrequencyChange></FrequencyChanges></Clock>\n	62.401	1	-1323623217	06-16-2010	13:15:56	71	0	0	.	.	.	Sounds	0		336987	f	8438	345425	Task	362977	1549	47	1	47	SubjectSubject	the.wav@
SentCompTask	157	1	<?xml version="1.0"?>\n<Clock xmlns:dt="urn:schemas-microsoft-com:datatypes"><Description dt:dt="string">E-Prime Primary Realtime Clock</Description><StartTime><Timestamp dt:dt="int">0</Timestamp><DateUtc dt:dt="string">2010-06-16T18:15:56Z</DateUtc></StartTime><FrequencyChanges><FrequencyChange><Frequency dt:dt="r8">3579545</Frequency><Timestamp dt:dt="r8">24445907824</Timestamp><Current dt:dt="r8">0</Current><DateUtc dt:dt="string">1969-12-31T20:46:40Z</DateUtc></FrequencyChange></FrequencyChanges></Clock>\n	62.401	1	-1323623217	06-16-2010	13:15:56	72	1	1	.	.	.	Sounds	0		366342	f	9435	375777	Task	364579	1755	48	1	48	SubjectSubject	show.wav@
SentCompTask	157	1	<?xml version="1.0"?>\n<Clock xmlns:dt="urn:schemas-microsoft-com:datatypes"><Description dt:dt="string">E-Prime Primary Realtime Clock</Description><StartTime><Timestamp dt:dt="int">0</Timestamp><DateUtc dt:dt="string">2010-06-16T18:15:56Z</DateUtc></StartTime><FrequencyChanges><FrequencyChange><Frequency dt:dt="r8">3579545</Frequency><Timestamp dt:dt="r8">24445907824</Timestamp><Current dt:dt="r8">0</Current><DateUtc dt:dt="string">1969-12-31T20:46:40Z</DateUtc></FrequencyChange></FrequencyChanges></Clock>\n	62.401	1	-1323623217	06-16-2010	13:15:56	73	0	0	.	.	.	Sounds	0		366342	f	9435	375777	Task	375796	2165	49	1	49	SubjectSubject	the.wav@
SentCompTask	157	1	<?xml version="1.0"?>\n<Clock xmlns:dt="urn:schemas-microsoft-com:datatypes"><Description dt:dt="string">E-Prime Primary Realtime Clock</Description><StartTime><Timestamp dt:dt="int">0</Timestamp><DateUtc dt:dt="string">2010-06-16T18:15:56Z</DateUtc></StartTime><FrequencyChanges><FrequencyChange><Frequency dt:dt="r8">3579545</Frequency><Timestamp dt:dt="r8">24445907824</Timestamp><Current dt:dt="r8">0</Current><DateUtc dt:dt="string">1969-12-31T20:46:40Z</DateUtc></FrequencyChange></FrequencyChanges></Clock>\n	62.401	1	-1323623217	06-16-2010	13:15:56	74	0	0	.	.	.	Sounds	0		366342	f	9435	375777	Task	377975	1813	50	1	50	SubjectSubject	bear.wav@
SentCompTask	157	1	<?xml version="1.0"?>\n<Clock xmlns:dt="urn:schemas-microsoft-com:datatypes"><Description dt:dt="string">E-Prime Primary Realtime Clock</Description><StartTime><Timestamp dt:dt="int">0</Timestamp><DateUtc dt:dt="string">2010-06-16T18:15:56Z</DateUtc></StartTime><FrequencyChanges><FrequencyChange><Frequency dt:dt="r8">3579545</Frequency><Timestamp dt:dt="r8">24445907824</Timestamp><Current dt:dt="r8">0</Current><DateUtc dt:dt="string">1969-12-31T20:46:40Z</DateUtc></FrequencyChange></FrequencyChanges></Clock>\n	62.401	1	-1323623217	06-16-2010	13:15:56	75	0	0	.	.	.	Sounds	0		366342	f	9435	375777	Task	379801	1985	51	1	51	SubjectSubject	that.wav@
SentCompTask	157	1	<?xml version="1.0"?>\n<Clock xmlns:dt="urn:schemas-microsoft-com:datatypes"><Description dt:dt="string">E-Prime Primary Realtime Clock</Description><StartTime><Timestamp dt:dt="int">0</Timestamp><DateUtc dt:dt="string">2010-06-16T18:15:56Z</DateUtc></StartTime><FrequencyChanges><FrequencyChange><Frequency dt:dt="r8">3579545</Frequency><Timestamp dt:dt="r8">24445907824</Timestamp><Current dt:dt="r8">0</Current><DateUtc dt:dt="string">1969-12-31T20:46:40Z</DateUtc></FrequencyChange></FrequencyChanges></Clock>\n	62.401	1	-1323623217	06-16-2010	13:15:56	76	0	0	.	.	.	Sounds	0		366342	f	9435	375777	Task	381804	1914	52	1	52	SubjectSubject	scared.wav@
SentCompTask	157	1	<?xml version="1.0"?>\n<Clock xmlns:dt="urn:schemas-microsoft-com:datatypes"><Description dt:dt="string">E-Prime Primary Realtime Clock</Description><StartTime><Timestamp dt:dt="int">0</Timestamp><DateUtc dt:dt="string">2010-06-16T18:15:56Z</DateUtc></StartTime><FrequencyChanges><FrequencyChange><Frequency dt:dt="r8">3579545</Frequency><Timestamp dt:dt="r8">24445907824</Timestamp><Current dt:dt="r8">0</Current><DateUtc dt:dt="string">1969-12-31T20:46:40Z</DateUtc></FrequencyChange></FrequencyChanges></Clock>\n	62.401	1	-1323623217	06-16-2010	13:15:56	77	0	0	.	.	.	Sounds	0		366342	f	9435	375777	Task	383727	1668	53	1	53	SubjectSubject	the.wav@
SentCompTask	157	1	<?xml version="1.0"?>\n<Clock xmlns:dt="urn:schemas-microsoft-com:datatypes"><Description dt:dt="string">E-Prime Primary Realtime Clock</Description><StartTime><Timestamp dt:dt="int">0</Timestamp><DateUtc dt:dt="string">2010-06-16T18:15:56Z</DateUtc></StartTime><FrequencyChanges><FrequencyChange><Frequency dt:dt="r8">3579545</Frequency><Timestamp dt:dt="r8">24445907824</Timestamp><Current dt:dt="r8">0</Current><DateUtc dt:dt="string">1969-12-31T20:46:40Z</DateUtc></FrequencyChange></FrequencyChanges></Clock>\n	62.401	1	-1323623217	06-16-2010	13:15:56	78	0	0	.	.	.	Sounds	0		366342	f	9435	375777	Task	385410	2422	54	1	54	SubjectSubject	lion.wav@
SentCompTask	157	1	<?xml version="1.0"?>\n<Clock xmlns:dt="urn:schemas-microsoft-com:datatypes"><Description dt:dt="string">E-Prime Primary Realtime Clock</Description><StartTime><Timestamp dt:dt="int">0</Timestamp><DateUtc dt:dt="string">2010-06-16T18:15:56Z</DateUtc></StartTime><FrequencyChanges><FrequencyChange><Frequency dt:dt="r8">3579545</Frequency><Timestamp dt:dt="r8">24445907824</Timestamp><Current dt:dt="r8">0</Current><DateUtc dt:dt="string">1969-12-31T20:46:40Z</DateUtc></FrequencyChange></FrequencyChanges></Clock>\n	62.401	1	-1323623217	06-16-2010	13:15:56	79	0	0	.	.	.	Sounds	0		366342	f	9435	375777	Task	387845	1694	55	1	55	SubjectSubject	climbed.wav@
SentCompTask	157	1	<?xml version="1.0"?>\n<Clock xmlns:dt="urn:schemas-microsoft-com:datatypes"><Description dt:dt="string">E-Prime Primary Realtime Clock</Description><StartTime><Timestamp dt:dt="int">0</Timestamp><DateUtc dt:dt="string">2010-06-16T18:15:56Z</DateUtc></StartTime><FrequencyChanges><FrequencyChange><Frequency dt:dt="r8">3579545</Frequency><Timestamp dt:dt="r8">24445907824</Timestamp><Current dt:dt="r8">0</Current><DateUtc dt:dt="string">1969-12-31T20:46:40Z</DateUtc></FrequencyChange></FrequencyChanges></Clock>\n	62.401	1	-1323623217	06-16-2010	13:15:56	80	0	0	.	.	.	Sounds	0		366342	f	9435	375777	Task	389544	2321	56	1	56	SubjectSubject	the.wav@
SentCompTask	157	1	<?xml version="1.0"?>\n<Clock xmlns:dt="urn:schemas-microsoft-com:datatypes"><Description dt:dt="string">E-Prime Primary Realtime Clock</Description><StartTime><Timestamp dt:dt="int">0</Timestamp><DateUtc dt:dt="string">2010-06-16T18:15:56Z</DateUtc></StartTime><FrequencyChanges><FrequencyChange><Frequency dt:dt="r8">3579545</Frequency><Timestamp dt:dt="r8">24445907824</Timestamp><Current dt:dt="r8">0</Current><DateUtc dt:dt="string">1969-12-31T20:46:40Z</DateUtc></FrequencyChange></FrequencyChanges></Clock>\n	62.401	1	-1323623217	06-16-2010	13:15:56	81	0	0	.	.	.	Sounds	0		366342	f	9435	375777	Task	391883	1997	57	1	57	SubjectSubject	mountain.wav@
SentCompTask	157	1	<?xml version="1.0"?>\n<Clock xmlns:dt="urn:schemas-microsoft-com:datatypes"><Description dt:dt="string">E-Prime Primary Realtime Clock</Description><StartTime><Timestamp dt:dt="int">0</Timestamp><DateUtc dt:dt="string">2010-06-16T18:15:56Z</DateUtc></StartTime><FrequencyChanges><FrequencyChange><Frequency dt:dt="r8">3579545</Frequency><Timestamp dt:dt="r8">24445907824</Timestamp><Current dt:dt="r8">0</Current><DateUtc dt:dt="string">1969-12-31T20:46:40Z</DateUtc></FrequencyChange></FrequencyChanges></Clock>\n	62.401	1	-1323623217	06-16-2010	13:15:56	82	0	0	.	.	.	Sounds	0		366342	f	9435	375777	Task	393886	1780	58	1	58	SubjectSubject	to.wav@
SentCompTask	157	1	<?xml version="1.0"?>\n<Clock xmlns:dt="urn:schemas-microsoft-com:datatypes"><Description dt:dt="string">E-Prime Primary Realtime Clock</Description><StartTime><Timestamp dt:dt="int">0</Timestamp><DateUtc dt:dt="string">2010-06-16T18:15:56Z</DateUtc></StartTime><FrequencyChanges><FrequencyChange><Frequency dt:dt="r8">3579545</Frequency><Timestamp dt:dt="r8">24445907824</Timestamp><Current dt:dt="r8">0</Current><DateUtc dt:dt="string">1969-12-31T20:46:40Z</DateUtc></FrequencyChange></FrequencyChanges></Clock>\n	62.401	1	-1323623217	06-16-2010	13:15:56	83	0	0	.	.	.	Sounds	0		366342	f	9435	375777	Task	395681	1635	59	1	59	SubjectSubject	the.wav@
SentCompTask	157	1	<?xml version="1.0"?>\n<Clock xmlns:dt="urn:schemas-microsoft-com:datatypes"><Description dt:dt="string">E-Prime Primary Realtime Clock</Description><StartTime><Timestamp dt:dt="int">0</Timestamp><DateUtc dt:dt="string">2010-06-16T18:15:56Z</DateUtc></StartTime><FrequencyChanges><FrequencyChange><Frequency dt:dt="r8">3579545</Frequency><Timestamp dt:dt="r8">24445907824</Timestamp><Current dt:dt="r8">0</Current><DateUtc dt:dt="string">1969-12-31T20:46:40Z</DateUtc></FrequencyChange></FrequencyChanges></Clock>\n	62.401	1	-1323623217	06-16-2010	13:15:56	84	1	1	.	.	.	Sounds	0		398997	t	6928	405925	Task	397347	1649	60	1	60	SubjectSubject	top.wav@
SentCompTask	157	1	<?xml version="1.0"?>\n<Clock xmlns:dt="urn:schemas-microsoft-com:datatypes"><Description dt:dt="string">E-Prime Primary Realtime Clock</Description><StartTime><Timestamp dt:dt="int">0</Timestamp><DateUtc dt:dt="string">2010-06-16T18:15:56Z</DateUtc></StartTime><FrequencyChanges><FrequencyChange><Frequency dt:dt="r8">3579545</Frequency><Timestamp dt:dt="r8">24445907824</Timestamp><Current dt:dt="r8">0</Current><DateUtc dt:dt="string">1969-12-31T20:46:40Z</DateUtc></FrequencyChange></FrequencyChanges></Clock>\n	62.401	1	-1323623217	06-16-2010	13:15:56	85	0	0	.	.	.	Sounds	0		398997	t	6928	405925	Task	405936	2569	61	1	61	SubjectObject	the.wav@
SentCompTask	157	1	<?xml version="1.0"?>\n<Clock xmlns:dt="urn:schemas-microsoft-com:datatypes"><Description dt:dt="string">E-Prime Primary Realtime Clock</Description><StartTime><Timestamp dt:dt="int">0</Timestamp><DateUtc dt:dt="string">2010-06-16T18:15:56Z</DateUtc></StartTime><FrequencyChanges><FrequencyChange><Frequency dt:dt="r8">3579545</Frequency><Timestamp dt:dt="r8">24445907824</Timestamp><Current dt:dt="r8">0</Current><DateUtc dt:dt="string">1969-12-31T20:46:40Z</DateUtc></FrequencyChange></FrequencyChanges></Clock>\n	62.401	1	-1323623217	06-16-2010	13:15:56	86	0	0	.	.	.	Sounds	0		398997	t	6928	405925	Task	408531	1672	62	1	62	SubjectObject	waiter.wav@
SentCompTask	157	1	<?xml version="1.0"?>\n<Clock xmlns:dt="urn:schemas-microsoft-com:datatypes"><Description dt:dt="string">E-Prime Primary Realtime Clock</Description><StartTime><Timestamp dt:dt="int">0</Timestamp><DateUtc dt:dt="string">2010-06-16T18:15:56Z</DateUtc></StartTime><FrequencyChanges><FrequencyChange><Frequency dt:dt="r8">3579545</Frequency><Timestamp dt:dt="r8">24445907824</Timestamp><Current dt:dt="r8">0</Current><DateUtc dt:dt="string">1969-12-31T20:46:40Z</DateUtc></FrequencyChange></FrequencyChanges></Clock>\n	62.401	1	-1323623217	06-16-2010	13:15:56	87	0	0	.	.	.	Sounds	0		398997	t	6928	405925	Task	410214	2298	63	1	63	SubjectObject	that.wav@
SentCompTask	157	1	<?xml version="1.0"?>\n<Clock xmlns:dt="urn:schemas-microsoft-com:datatypes"><Description dt:dt="string">E-Prime Primary Realtime Clock</Description><StartTime><Timestamp dt:dt="int">0</Timestamp><DateUtc dt:dt="string">2010-06-16T18:15:56Z</DateUtc></StartTime><FrequencyChanges><FrequencyChange><Frequency dt:dt="r8">3579545</Frequency><Timestamp dt:dt="r8">24445907824</Timestamp><Current dt:dt="r8">0</Current><DateUtc dt:dt="string">1969-12-31T20:46:40Z</DateUtc></FrequencyChange></FrequencyChanges></Clock>\n	62.401	1	-1323623217	06-16-2010	13:15:56	88	0	0	.	.	.	Sounds	0		398997	t	6928	405925	Task	412521	1625	64	1	64	SubjectObject	the.wav@
SentCompTask	157	1	<?xml version="1.0"?>\n<Clock xmlns:dt="urn:schemas-microsoft-com:datatypes"><Description dt:dt="string">E-Prime Primary Realtime Clock</Description><StartTime><Timestamp dt:dt="int">0</Timestamp><DateUtc dt:dt="string">2010-06-16T18:15:56Z</DateUtc></StartTime><FrequencyChanges><FrequencyChange><Frequency dt:dt="r8">3579545</Frequency><Timestamp dt:dt="r8">24445907824</Timestamp><Current dt:dt="r8">0</Current><DateUtc dt:dt="string">1969-12-31T20:46:40Z</DateUtc></FrequencyChange></FrequencyChanges></Clock>\n	62.401	1	-1323623217	06-16-2010	13:15:56	89	0	0	.	.	.	Sounds	0		398997	t	6928	405925	Task	414155	1380	65	1	65	SubjectObject	manager.wav@
SentCompTask	157	1	<?xml version="1.0"?>\n<Clock xmlns:dt="urn:schemas-microsoft-com:datatypes"><Description dt:dt="string">E-Prime Primary Realtime Clock</Description><StartTime><Timestamp dt:dt="int">0</Timestamp><DateUtc dt:dt="string">2010-06-16T18:15:56Z</DateUtc></StartTime><FrequencyChanges><FrequencyChange><Frequency dt:dt="r8">3579545</Frequency><Timestamp dt:dt="r8">24445907824</Timestamp><Current dt:dt="r8">0</Current><DateUtc dt:dt="string">1969-12-31T20:46:40Z</DateUtc></FrequencyChange></FrequencyChanges></Clock>\n	62.401	1	-1323623217	06-16-2010	13:15:56	90	0	0	.	.	.	Sounds	0		398997	t	6928	405925	Task	415550	1661	66	1	66	SubjectObject	blamed.wav@
SentCompTask	157	1	<?xml version="1.0"?>\n<Clock xmlns:dt="urn:schemas-microsoft-com:datatypes"><Description dt:dt="string">E-Prime Primary Realtime Clock</Description><StartTime><Timestamp dt:dt="int">0</Timestamp><DateUtc dt:dt="string">2010-06-16T18:15:56Z</DateUtc></StartTime><FrequencyChanges><FrequencyChange><Frequency dt:dt="r8">3579545</Frequency><Timestamp dt:dt="r8">24445907824</Timestamp><Current dt:dt="r8">0</Current><DateUtc dt:dt="string">1969-12-31T20:46:40Z</DateUtc></FrequencyChange></FrequencyChanges></Clock>\n	62.401	1	-1323623217	06-16-2010	13:15:56	91	0	0	.	.	.	Sounds	0		398997	t	6928	405925	Task	417216	1216	67	1	67	SubjectObject	carried.wav@
SentCompTask	157	1	<?xml version="1.0"?>\n<Clock xmlns:dt="urn:schemas-microsoft-com:datatypes"><Description dt:dt="string">E-Prime Primary Realtime Clock</Description><StartTime><Timestamp dt:dt="int">0</Timestamp><DateUtc dt:dt="string">2010-06-16T18:15:56Z</DateUtc></StartTime><FrequencyChanges><FrequencyChange><Frequency dt:dt="r8">3579545</Frequency><Timestamp dt:dt="r8">24445907824</Timestamp><Current dt:dt="r8">0</Current><DateUtc dt:dt="string">1969-12-31T20:46:40Z</DateUtc></FrequencyChange></FrequencyChanges></Clock>\n	62.401	1	-1323623217	06-16-2010	13:15:56	92	0	0	.	.	.	Sounds	0		398997	t	6928	405925	Task	418450	1287	68	1	68	SubjectObject	the.wav@
SentCompTask	157	1	<?xml version="1.0"?>\n<Clock xmlns:dt="urn:schemas-microsoft-com:datatypes"><Description dt:dt="string">E-Prime Primary Realtime Clock</Description><StartTime><Timestamp dt:dt="int">0</Timestamp><DateUtc dt:dt="string">2010-06-16T18:15:56Z</DateUtc></StartTime><FrequencyChanges><FrequencyChange><Frequency dt:dt="r8">3579545</Frequency><Timestamp dt:dt="r8">24445907824</Timestamp><Current dt:dt="r8">0</Current><DateUtc dt:dt="string">1969-12-31T20:46:40Z</DateUtc></FrequencyChange></FrequencyChanges></Clock>\n	62.401	1	-1323623217	06-16-2010	13:15:56	93	0	0	.	.	.	Sounds	0		398997	t	6928	405925	Task	419812	2159	69	1	69	SubjectObject	suitcase.wav@
SentCompTask	157	1	<?xml version="1.0"?>\n<Clock xmlns:dt="urn:schemas-microsoft-com:datatypes"><Description dt:dt="string">E-Prime Primary Realtime Clock</Description><StartTime><Timestamp dt:dt="int">0</Timestamp><DateUtc dt:dt="string">2010-06-16T18:15:56Z</DateUtc></StartTime><FrequencyChanges><FrequencyChange><Frequency dt:dt="r8">3579545</Frequency><Timestamp dt:dt="r8">24445907824</Timestamp><Current dt:dt="r8">0</Current><DateUtc dt:dt="string">1969-12-31T20:46:40Z</DateUtc></FrequencyChange></FrequencyChanges></Clock>\n	62.401	1	-1323623217	06-16-2010	13:15:56	94	0	0	.	.	.	Sounds	0		398997	t	6928	405925	Task	422055	1332	70	1	70	SubjectObject	up.wav@
SentCompTask	157	1	<?xml version="1.0"?>\n<Clock xmlns:dt="urn:schemas-microsoft-com:datatypes"><Description dt:dt="string">E-Prime Primary Realtime Clock</Description><StartTime><Timestamp dt:dt="int">0</Timestamp><DateUtc dt:dt="string">2010-06-16T18:15:56Z</DateUtc></StartTime><FrequencyChanges><FrequencyChange><Frequency dt:dt="r8">3579545</Frequency><Timestamp dt:dt="r8">24445907824</Timestamp><Current dt:dt="r8">0</Current><DateUtc dt:dt="string">1969-12-31T20:46:40Z</DateUtc></FrequencyChange></FrequencyChanges></Clock>\n	62.401	1	-1323623217	06-16-2010	13:15:56	95	0	0	.	.	.	Sounds	0		398997	t	6928	405925	Task	423401	1723	71	1	71	SubjectObject	the.wav@
SentCompTask	157	1	<?xml version="1.0"?>\n<Clock xmlns:dt="urn:schemas-microsoft-com:datatypes"><Description dt:dt="string">E-Prime Primary Realtime Clock</Description><StartTime><Timestamp dt:dt="int">0</Timestamp><DateUtc dt:dt="string">2010-06-16T18:15:56Z</DateUtc></StartTime><FrequencyChanges><FrequencyChange><Frequency dt:dt="r8">3579545</Frequency><Timestamp dt:dt="r8">24445907824</Timestamp><Current dt:dt="r8">0</Current><DateUtc dt:dt="string">1969-12-31T20:46:40Z</DateUtc></FrequencyChange></FrequencyChanges></Clock>\n	62.401	1	-1323623217	06-16-2010	13:15:56	96	5	1	.	.	.	Sounds	0		426445	f	8479	434924	Task	425148	1286	72	1	72	SubjectObject	stairs.wav@
SentCompTask	157	1	<?xml version="1.0"?>\n<Clock xmlns:dt="urn:schemas-microsoft-com:datatypes"><Description dt:dt="string">E-Prime Primary Realtime Clock</Description><StartTime><Timestamp dt:dt="int">0</Timestamp><DateUtc dt:dt="string">2010-06-16T18:15:56Z</DateUtc></StartTime><FrequencyChanges><FrequencyChange><Frequency dt:dt="r8">3579545</Frequency><Timestamp dt:dt="r8">24445907824</Timestamp><Current dt:dt="r8">0</Current><DateUtc dt:dt="string">1969-12-31T20:46:40Z</DateUtc></FrequencyChange></FrequencyChanges></Clock>\n	62.401	1	-1323623217	06-16-2010	13:15:56	97	0	0	.	.	.	Sounds	0		426445	f	8479	434924	Task	434938	2538	73	1	73	SubjectObject	the.wav@
SentCompTask	157	1	<?xml version="1.0"?>\n<Clock xmlns:dt="urn:schemas-microsoft-com:datatypes"><Description dt:dt="string">E-Prime Primary Realtime Clock</Description><StartTime><Timestamp dt:dt="int">0</Timestamp><DateUtc dt:dt="string">2010-06-16T18:15:56Z</DateUtc></StartTime><FrequencyChanges><FrequencyChange><Frequency dt:dt="r8">3579545</Frequency><Timestamp dt:dt="r8">24445907824</Timestamp><Current dt:dt="r8">0</Current><DateUtc dt:dt="string">1969-12-31T20:46:40Z</DateUtc></FrequencyChange></FrequencyChanges></Clock>\n	62.401	1	-1323623217	06-16-2010	13:15:56	98	0	0	.	.	.	Sounds	0		426445	f	8479	434924	Task	437502	1706	74	1	74	SubjectObject	turkey.wav@
SentCompTask	157	1	<?xml version="1.0"?>\n<Clock xmlns:dt="urn:schemas-microsoft-com:datatypes"><Description dt:dt="string">E-Prime Primary Realtime Clock</Description><StartTime><Timestamp dt:dt="int">0</Timestamp><DateUtc dt:dt="string">2010-06-16T18:15:56Z</DateUtc></StartTime><FrequencyChanges><FrequencyChange><Frequency dt:dt="r8">3579545</Frequency><Timestamp dt:dt="r8">24445907824</Timestamp><Current dt:dt="r8">0</Current><DateUtc dt:dt="string">1969-12-31T20:46:40Z</DateUtc></FrequencyChange></FrequencyChanges></Clock>\n	62.401	1	-1323623217	06-16-2010	13:15:56	99	0	0	.	.	.	Sounds	0		426445	f	8479	434924	Task	439216	1813	75	1	75	SubjectObject	that.wav@
SentCompTask	157	1	<?xml version="1.0"?>\n<Clock xmlns:dt="urn:schemas-microsoft-com:datatypes"><Description dt:dt="string">E-Prime Primary Realtime Clock</Description><StartTime><Timestamp dt:dt="int">0</Timestamp><DateUtc dt:dt="string">2010-06-16T18:15:56Z</DateUtc></StartTime><FrequencyChanges><FrequencyChange><Frequency dt:dt="r8">3579545</Frequency><Timestamp dt:dt="r8">24445907824</Timestamp><Current dt:dt="r8">0</Current><DateUtc dt:dt="string">1969-12-31T20:46:40Z</DateUtc></FrequencyChange></FrequencyChanges></Clock>\n	62.401	1	-1323623217	06-16-2010	13:15:56	100	0	0	.	.	.	Sounds	0		426445	f	8479	434924	Task	441043	1310	76	1	76	SubjectObject	the.wav@
SentCompTask	157	1	<?xml version="1.0"?>\n<Clock xmlns:dt="urn:schemas-microsoft-com:datatypes"><Description dt:dt="string">E-Prime Primary Realtime Clock</Description><StartTime><Timestamp dt:dt="int">0</Timestamp><DateUtc dt:dt="string">2010-06-16T18:15:56Z</DateUtc></StartTime><FrequencyChanges><FrequencyChange><Frequency dt:dt="r8">3579545</Frequency><Timestamp dt:dt="r8">24445907824</Timestamp><Current dt:dt="r8">0</Current><DateUtc dt:dt="string">1969-12-31T20:46:40Z</DateUtc></FrequencyChange></FrequencyChanges></Clock>\n	62.401	1	-1323623217	06-16-2010	13:15:56	101	0	0	.	.	.	Sounds	0		426445	f	8479	434924	Task	442405	2109	77	1	77	SubjectObject	snake.wav@
SentCompTask	157	1	<?xml version="1.0"?>\n<Clock xmlns:dt="urn:schemas-microsoft-com:datatypes"><Description dt:dt="string">E-Prime Primary Realtime Clock</Description><StartTime><Timestamp dt:dt="int">0</Timestamp><DateUtc dt:dt="string">2010-06-16T18:15:56Z</DateUtc></StartTime><FrequencyChanges><FrequencyChange><Frequency dt:dt="r8">3579545</Frequency><Timestamp dt:dt="r8">24445907824</Timestamp><Current dt:dt="r8">0</Current><DateUtc dt:dt="string">1969-12-31T20:46:40Z</DateUtc></FrequencyChange></FrequencyChanges></Clock>\n	62.401	1	-1323623217	06-16-2010	13:15:56	102	0	0	.	.	.	Sounds	0		426445	f	8479	434924	Task	444520	5006	78	1	78	SubjectObject	scared.wav@
SentCompTask	157	1	<?xml version="1.0"?>\n<Clock xmlns:dt="urn:schemas-microsoft-com:datatypes"><Description dt:dt="string">E-Prime Primary Realtime Clock</Description><StartTime><Timestamp dt:dt="int">0</Timestamp><DateUtc dt:dt="string">2010-06-16T18:15:56Z</DateUtc></StartTime><FrequencyChanges><FrequencyChange><Frequency dt:dt="r8">3579545</Frequency><Timestamp dt:dt="r8">24445907824</Timestamp><Current dt:dt="r8">0</Current><DateUtc dt:dt="string">1969-12-31T20:46:40Z</DateUtc></FrequencyChange></FrequencyChanges></Clock>\n	62.401	1	-1323623217	06-16-2010	13:15:56	103	0	0	.	.	.	Sounds	0		426445	f	8479	434924	Task	449535	1570	79	1	79	SubjectObject	drank.wav@
SentCompTask	157	1	<?xml version="1.0"?>\n<Clock xmlns:dt="urn:schemas-microsoft-com:datatypes"><Description dt:dt="string">E-Prime Primary Realtime Clock</Description><StartTime><Timestamp dt:dt="int">0</Timestamp><DateUtc dt:dt="string">2010-06-16T18:15:56Z</DateUtc></StartTime><FrequencyChanges><FrequencyChange><Frequency dt:dt="r8">3579545</Frequency><Timestamp dt:dt="r8">24445907824</Timestamp><Current dt:dt="r8">0</Current><DateUtc dt:dt="string">1969-12-31T20:46:40Z</DateUtc></FrequencyChange></FrequencyChanges></Clock>\n	62.401	1	-1323623217	06-16-2010	13:15:56	104	0	0	.	.	.	Sounds	0		426445	f	8479	434924	Task	451121	1870	80	1	80	SubjectObject	the.wav@
SentCompTask	157	1	<?xml version="1.0"?>\n<Clock xmlns:dt="urn:schemas-microsoft-com:datatypes"><Description dt:dt="string">E-Prime Primary Realtime Clock</Description><StartTime><Timestamp dt:dt="int">0</Timestamp><DateUtc dt:dt="string">2010-06-16T18:15:56Z</DateUtc></StartTime><FrequencyChanges><FrequencyChange><Frequency dt:dt="r8">3579545</Frequency><Timestamp dt:dt="r8">24445907824</Timestamp><Current dt:dt="r8">0</Current><DateUtc dt:dt="string">1969-12-31T20:46:40Z</DateUtc></FrequencyChange></FrequencyChanges></Clock>\n	62.401	1	-1323623217	06-16-2010	13:15:56	105	0	0	.	.	.	Sounds	0		426445	f	8479	434924	Task	453012	3300	81	1	81	SubjectObject	water.wav@
SentCompTask	157	1	<?xml version="1.0"?>\n<Clock xmlns:dt="urn:schemas-microsoft-com:datatypes"><Description dt:dt="string">E-Prime Primary Realtime Clock</Description><StartTime><Timestamp dt:dt="int">0</Timestamp><DateUtc dt:dt="string">2010-06-16T18:15:56Z</DateUtc></StartTime><FrequencyChanges><FrequencyChange><Frequency dt:dt="r8">3579545</Frequency><Timestamp dt:dt="r8">24445907824</Timestamp><Current dt:dt="r8">0</Current><DateUtc dt:dt="string">1969-12-31T20:46:40Z</DateUtc></FrequencyChange></FrequencyChanges></Clock>\n	62.401	1	-1323623217	06-16-2010	13:15:56	106	0	0	.	.	.	Sounds	0		426445	f	8479	434924	Task	456329	1402	82	1	82	SubjectObject	from.wav@
SentCompTask	157	1	<?xml version="1.0"?>\n<Clock xmlns:dt="urn:schemas-microsoft-com:datatypes"><Description dt:dt="string">E-Prime Primary Realtime Clock</Description><StartTime><Timestamp dt:dt="int">0</Timestamp><DateUtc dt:dt="string">2010-06-16T18:15:56Z</DateUtc></StartTime><FrequencyChanges><FrequencyChange><Frequency dt:dt="r8">3579545</Frequency><Timestamp dt:dt="r8">24445907824</Timestamp><Current dt:dt="r8">0</Current><DateUtc dt:dt="string">1969-12-31T20:46:40Z</DateUtc></FrequencyChange></FrequencyChanges></Clock>\n	62.401	1	-1323623217	06-16-2010	13:15:56	107	0	0	.	.	.	Sounds	0		426445	f	8479	434924	Task	457739	1658	83	1	83	SubjectObject	the.wav@
SentCompTask	157	1	<?xml version="1.0"?>\n<Clock xmlns:dt="urn:schemas-microsoft-com:datatypes"><Description dt:dt="string">E-Prime Primary Realtime Clock</Description><StartTime><Timestamp dt:dt="int">0</Timestamp><DateUtc dt:dt="string">2010-06-16T18:15:56Z</DateUtc></StartTime><FrequencyChanges><FrequencyChange><Frequency dt:dt="r8">3579545</Frequency><Timestamp dt:dt="r8">24445907824</Timestamp><Current dt:dt="r8">0</Current><DateUtc dt:dt="string">1969-12-31T20:46:40Z</DateUtc></FrequencyChange></FrequencyChanges></Clock>\n	62.401	1	-1323623217	06-16-2010	13:15:56	108	1	1	.	.	.	Sounds	0		460912	t	6929	467841	Task	459406	1489	84	1	84	SubjectObject	bucket.wav@
SentCompTask	157	1	<?xml version="1.0"?>\n<Clock xmlns:dt="urn:schemas-microsoft-com:datatypes"><Description dt:dt="string">E-Prime Primary Realtime Clock</Description><StartTime><Timestamp dt:dt="int">0</Timestamp><DateUtc dt:dt="string">2010-06-16T18:15:56Z</DateUtc></StartTime><FrequencyChanges><FrequencyChange><Frequency dt:dt="r8">3579545</Frequency><Timestamp dt:dt="r8">24445907824</Timestamp><Current dt:dt="r8">0</Current><DateUtc dt:dt="string">1969-12-31T20:46:40Z</DateUtc></FrequencyChange></FrequencyChanges></Clock>\n	62.401	1	-1323623217	06-16-2010	13:15:56	109	0	0	.	.	.	Sounds	0		460912	t	6929	467841	Task	467850	2369	85	1	85	SubjectSubject	the.wav@
SentCompTask	157	1	<?xml version="1.0"?>\n<Clock xmlns:dt="urn:schemas-microsoft-com:datatypes"><Description dt:dt="string">E-Prime Primary Realtime Clock</Description><StartTime><Timestamp dt:dt="int">0</Timestamp><DateUtc dt:dt="string">2010-06-16T18:15:56Z</DateUtc></StartTime><FrequencyChanges><FrequencyChange><Frequency dt:dt="r8">3579545</Frequency><Timestamp dt:dt="r8">24445907824</Timestamp><Current dt:dt="r8">0</Current><DateUtc dt:dt="string">1969-12-31T20:46:40Z</DateUtc></FrequencyChange></FrequencyChanges></Clock>\n	62.401	1	-1323623217	06-16-2010	13:15:56	110	0	0	.	.	.	Sounds	0		460912	t	6929	467841	Task	470221	2129	86	1	86	SubjectSubject	horse.wav@
SentCompTask	157	1	<?xml version="1.0"?>\n<Clock xmlns:dt="urn:schemas-microsoft-com:datatypes"><Description dt:dt="string">E-Prime Primary Realtime Clock</Description><StartTime><Timestamp dt:dt="int">0</Timestamp><DateUtc dt:dt="string">2010-06-16T18:15:56Z</DateUtc></StartTime><FrequencyChanges><FrequencyChange><Frequency dt:dt="r8">3579545</Frequency><Timestamp dt:dt="r8">24445907824</Timestamp><Current dt:dt="r8">0</Current><DateUtc dt:dt="string">1969-12-31T20:46:40Z</DateUtc></FrequencyChange></FrequencyChanges></Clock>\n	62.401	1	-1323623217	06-16-2010	13:15:56	111	0	0	.	.	.	Sounds	0		460912	t	6929	467841	Task	472353	2072	87	1	87	SubjectSubject	that.wav@
SentCompTask	157	1	<?xml version="1.0"?>\n<Clock xmlns:dt="urn:schemas-microsoft-com:datatypes"><Description dt:dt="string">E-Prime Primary Realtime Clock</Description><StartTime><Timestamp dt:dt="int">0</Timestamp><DateUtc dt:dt="string">2010-06-16T18:15:56Z</DateUtc></StartTime><FrequencyChanges><FrequencyChange><Frequency dt:dt="r8">3579545</Frequency><Timestamp dt:dt="r8">24445907824</Timestamp><Current dt:dt="r8">0</Current><DateUtc dt:dt="string">1969-12-31T20:46:40Z</DateUtc></FrequencyChange></FrequencyChanges></Clock>\n	62.401	1	-1323623217	06-16-2010	13:15:56	112	0	0	.	.	.	Sounds	0		460912	t	6929	467841	Task	474435	1892	88	1	88	SubjectSubject	kicked.wav@
SentCompTask	157	1	<?xml version="1.0"?>\n<Clock xmlns:dt="urn:schemas-microsoft-com:datatypes"><Description dt:dt="string">E-Prime Primary Realtime Clock</Description><StartTime><Timestamp dt:dt="int">0</Timestamp><DateUtc dt:dt="string">2010-06-16T18:15:56Z</DateUtc></StartTime><FrequencyChanges><FrequencyChange><Frequency dt:dt="r8">3579545</Frequency><Timestamp dt:dt="r8">24445907824</Timestamp><Current dt:dt="r8">0</Current><DateUtc dt:dt="string">1969-12-31T20:46:40Z</DateUtc></FrequencyChange></FrequencyChanges></Clock>\n	62.401	1	-1323623217	06-16-2010	13:15:56	113	0	0	.	.	.	Sounds	0		460912	t	6929	467841	Task	476342	1395	89	1	89	SubjectSubject	the.wav@
SentCompTask	157	1	<?xml version="1.0"?>\n<Clock xmlns:dt="urn:schemas-microsoft-com:datatypes"><Description dt:dt="string">E-Prime Primary Realtime Clock</Description><StartTime><Timestamp dt:dt="int">0</Timestamp><DateUtc dt:dt="string">2010-06-16T18:15:56Z</DateUtc></StartTime><FrequencyChanges><FrequencyChange><Frequency dt:dt="r8">3579545</Frequency><Timestamp dt:dt="r8">24445907824</Timestamp><Current dt:dt="r8">0</Current><DateUtc dt:dt="string">1969-12-31T20:46:40Z</DateUtc></FrequencyChange></FrequencyChanges></Clock>\n	62.401	1	-1323623217	06-16-2010	13:15:56	114	0	0	.	.	.	Sounds	0		460912	t	6929	467841	Task	477752	1702	90	1	90	SubjectSubject	cow.wav@
SentCompTask	157	1	<?xml version="1.0"?>\n<Clock xmlns:dt="urn:schemas-microsoft-com:datatypes"><Description dt:dt="string">E-Prime Primary Realtime Clock</Description><StartTime><Timestamp dt:dt="int">0</Timestamp><DateUtc dt:dt="string">2010-06-16T18:15:56Z</DateUtc></StartTime><FrequencyChanges><FrequencyChange><Frequency dt:dt="r8">3579545</Frequency><Timestamp dt:dt="r8">24445907824</Timestamp><Current dt:dt="r8">0</Current><DateUtc dt:dt="string">1969-12-31T20:46:40Z</DateUtc></FrequencyChange></FrequencyChanges></Clock>\n	62.401	1	-1323623217	06-16-2010	13:15:56	115	0	0	.	.	.	Sounds	0		460912	t	6929	467841	Task	479467	1675	91	1	91	SubjectSubject	broke.wav@
SentCompTask	157	1	<?xml version="1.0"?>\n<Clock xmlns:dt="urn:schemas-microsoft-com:datatypes"><Description dt:dt="string">E-Prime Primary Realtime Clock</Description><StartTime><Timestamp dt:dt="int">0</Timestamp><DateUtc dt:dt="string">2010-06-16T18:15:56Z</DateUtc></StartTime><FrequencyChanges><FrequencyChange><Frequency dt:dt="r8">3579545</Frequency><Timestamp dt:dt="r8">24445907824</Timestamp><Current dt:dt="r8">0</Current><DateUtc dt:dt="string">1969-12-31T20:46:40Z</DateUtc></FrequencyChange></FrequencyChanges></Clock>\n	62.401	1	-1323623217	06-16-2010	13:15:56	116	0	0	.	.	.	Sounds	0		460912	t	6929	467841	Task	481149	2146	92	1	92	SubjectSubject	the.wav@
SentCompTask	157	1	<?xml version="1.0"?>\n<Clock xmlns:dt="urn:schemas-microsoft-com:datatypes"><Description dt:dt="string">E-Prime Primary Realtime Clock</Description><StartTime><Timestamp dt:dt="int">0</Timestamp><DateUtc dt:dt="string">2010-06-16T18:15:56Z</DateUtc></StartTime><FrequencyChanges><FrequencyChange><Frequency dt:dt="r8">3579545</Frequency><Timestamp dt:dt="r8">24445907824</Timestamp><Current dt:dt="r8">0</Current><DateUtc dt:dt="string">1969-12-31T20:46:40Z</DateUtc></FrequencyChange></FrequencyChanges></Clock>\n	62.401	1	-1323623217	06-16-2010	13:15:56	117	0	0	.	.	.	Sounds	0		460912	t	6929	467841	Task	483312	1764	93	1	93	SubjectSubject	gate.wav@
SentCompTask	157	1	<?xml version="1.0"?>\n<Clock xmlns:dt="urn:schemas-microsoft-com:datatypes"><Description dt:dt="string">E-Prime Primary Realtime Clock</Description><StartTime><Timestamp dt:dt="int">0</Timestamp><DateUtc dt:dt="string">2010-06-16T18:15:56Z</DateUtc></StartTime><FrequencyChanges><FrequencyChange><Frequency dt:dt="r8">3579545</Frequency><Timestamp dt:dt="r8">24445907824</Timestamp><Current dt:dt="r8">0</Current><DateUtc dt:dt="string">1969-12-31T20:46:40Z</DateUtc></FrequencyChange></FrequencyChanges></Clock>\n	62.401	1	-1323623217	06-16-2010	13:15:56	118	0	0	.	.	.	Sounds	0		460912	t	6929	467841	Task	485091	1932	94	1	94	SubjectSubject	to.wav@
SentCompTask	157	1	<?xml version="1.0"?>\n<Clock xmlns:dt="urn:schemas-microsoft-com:datatypes"><Description dt:dt="string">E-Prime Primary Realtime Clock</Description><StartTime><Timestamp dt:dt="int">0</Timestamp><DateUtc dt:dt="string">2010-06-16T18:15:56Z</DateUtc></StartTime><FrequencyChanges><FrequencyChange><Frequency dt:dt="r8">3579545</Frequency><Timestamp dt:dt="r8">24445907824</Timestamp><Current dt:dt="r8">0</Current><DateUtc dt:dt="string">1969-12-31T20:46:40Z</DateUtc></FrequencyChange></FrequencyChanges></Clock>\n	62.401	1	-1323623217	06-16-2010	13:15:56	119	0	0	.	.	.	Sounds	0		460912	t	6929	467841	Task	487030	1811	95	1	95	SubjectSubject	the.wav@
SentCompTask	157	1	<?xml version="1.0"?>\n<Clock xmlns:dt="urn:schemas-microsoft-com:datatypes"><Description dt:dt="string">E-Prime Primary Realtime Clock</Description><StartTime><Timestamp dt:dt="int">0</Timestamp><DateUtc dt:dt="string">2010-06-16T18:15:56Z</DateUtc></StartTime><FrequencyChanges><FrequencyChange><Frequency dt:dt="r8">3579545</Frequency><Timestamp dt:dt="r8">24445907824</Timestamp><Current dt:dt="r8">0</Current><DateUtc dt:dt="string">1969-12-31T20:46:40Z</DateUtc></FrequencyChange></FrequencyChanges></Clock>\n	62.401	1	-1323623217	06-16-2010	13:15:56	120	5	1	.	.	.	Sounds	0		490459	f	8648	499107	Task	488857	1597	96	1	96	SubjectSubject	fence.wav@
SentCompTask	157	1	<?xml version="1.0"?>\n<Clock xmlns:dt="urn:schemas-microsoft-com:datatypes"><Description dt:dt="string">E-Prime Primary Realtime Clock</Description><StartTime><Timestamp dt:dt="int">0</Timestamp><DateUtc dt:dt="string">2010-06-16T18:15:56Z</DateUtc></StartTime><FrequencyChanges><FrequencyChange><Frequency dt:dt="r8">3579545</Frequency><Timestamp dt:dt="r8">24445907824</Timestamp><Current dt:dt="r8">0</Current><DateUtc dt:dt="string">1969-12-31T20:46:40Z</DateUtc></FrequencyChange></FrequencyChanges></Clock>\n	62.401	1	-1323623217	06-16-2010	13:15:56	121	0	0	.	.	.	Sounds	0		490459	f	8648	499107	Task	499111	2145	97	1	97	SubjectObject	the.wav@
SentCompTask	157	1	<?xml version="1.0"?>\n<Clock xmlns:dt="urn:schemas-microsoft-com:datatypes"><Description dt:dt="string">E-Prime Primary Realtime Clock</Description><StartTime><Timestamp dt:dt="int">0</Timestamp><DateUtc dt:dt="string">2010-06-16T18:15:56Z</DateUtc></StartTime><FrequencyChanges><FrequencyChange><Frequency dt:dt="r8">3579545</Frequency><Timestamp dt:dt="r8">24445907824</Timestamp><Current dt:dt="r8">0</Current><DateUtc dt:dt="string">1969-12-31T20:46:40Z</DateUtc></FrequencyChange></FrequencyChanges></Clock>\n	62.401	1	-1323623217	06-16-2010	13:15:56	122	0	0	.	.	.	Sounds	0		490459	f	8648	499107	Task	501259	1720	98	1	98	SubjectObject	child.wav@
SentCompTask	157	1	<?xml version="1.0"?>\n<Clock xmlns:dt="urn:schemas-microsoft-com:datatypes"><Description dt:dt="string">E-Prime Primary Realtime Clock</Description><StartTime><Timestamp dt:dt="int">0</Timestamp><DateUtc dt:dt="string">2010-06-16T18:15:56Z</DateUtc></StartTime><FrequencyChanges><FrequencyChange><Frequency dt:dt="r8">3579545</Frequency><Timestamp dt:dt="r8">24445907824</Timestamp><Current dt:dt="r8">0</Current><DateUtc dt:dt="string">1969-12-31T20:46:40Z</DateUtc></FrequencyChange></FrequencyChanges></Clock>\n	62.401	1	-1323623217	06-16-2010	13:15:56	123	0	0	.	.	.	Sounds	0		490459	f	8648	499107	Task	502989	1473	99	1	99	SubjectObject	that.wav@
SentCompTask	157	1	<?xml version="1.0"?>\n<Clock xmlns:dt="urn:schemas-microsoft-com:datatypes"><Description dt:dt="string">E-Prime Primary Realtime Clock</Description><StartTime><Timestamp dt:dt="int">0</Timestamp><DateUtc dt:dt="string">2010-06-16T18:15:56Z</DateUtc></StartTime><FrequencyChanges><FrequencyChange><Frequency dt:dt="r8">3579545</Frequency><Timestamp dt:dt="r8">24445907824</Timestamp><Current dt:dt="r8">0</Current><DateUtc dt:dt="string">1969-12-31T20:46:40Z</DateUtc></FrequencyChange></FrequencyChanges></Clock>\n	62.401	1	-1323623217	06-16-2010	13:15:56	124	0	0	.	.	.	Sounds	0		490459	f	8648	499107	Task	504479	1610	100	1	100	SubjectObject	the.wav@
SentCompTask	157	1	<?xml version="1.0"?>\n<Clock xmlns:dt="urn:schemas-microsoft-com:datatypes"><Description dt:dt="string">E-Prime Primary Realtime Clock</Description><StartTime><Timestamp dt:dt="int">0</Timestamp><DateUtc dt:dt="string">2010-06-16T18:15:56Z</DateUtc></StartTime><FrequencyChanges><FrequencyChange><Frequency dt:dt="r8">3579545</Frequency><Timestamp dt:dt="r8">24445907824</Timestamp><Current dt:dt="r8">0</Current><DateUtc dt:dt="string">1969-12-31T20:46:40Z</DateUtc></FrequencyChange></FrequencyChanges></Clock>\n	62.401	1	-1323623217	06-16-2010	13:15:56	125	0	0	.	.	.	Sounds	0		490459	f	8648	499107	Task	506098	1518	101	1	101	SubjectObject	artist.wav@
SentCompTask	157	1	<?xml version="1.0"?>\n<Clock xmlns:dt="urn:schemas-microsoft-com:datatypes"><Description dt:dt="string">E-Prime Primary Realtime Clock</Description><StartTime><Timestamp dt:dt="int">0</Timestamp><DateUtc dt:dt="string">2010-06-16T18:15:56Z</DateUtc></StartTime><FrequencyChanges><FrequencyChange><Frequency dt:dt="r8">3579545</Frequency><Timestamp dt:dt="r8">24445907824</Timestamp><Current dt:dt="r8">0</Current><DateUtc dt:dt="string">1969-12-31T20:46:40Z</DateUtc></FrequencyChange></FrequencyChanges></Clock>\n	62.401	1	-1323623217	06-16-2010	13:15:56	126	0	0	.	.	.	Sounds	0		490459	f	8648	499107	Task	507620	1670	102	1	102	SubjectObject	drew.wav@
SentCompTask	157	1	<?xml version="1.0"?>\n<Clock xmlns:dt="urn:schemas-microsoft-com:datatypes"><Description dt:dt="string">E-Prime Primary Realtime Clock</Description><StartTime><Timestamp dt:dt="int">0</Timestamp><DateUtc dt:dt="string">2010-06-16T18:15:56Z</DateUtc></StartTime><FrequencyChanges><FrequencyChange><Frequency dt:dt="r8">3579545</Frequency><Timestamp dt:dt="r8">24445907824</Timestamp><Current dt:dt="r8">0</Current><DateUtc dt:dt="string">1969-12-31T20:46:40Z</DateUtc></FrequencyChange></FrequencyChanges></Clock>\n	62.401	1	-1323623217	06-16-2010	13:15:56	127	0	0	.	.	.	Sounds	0		490459	f	8648	499107	Task	509302	1979	103	1	103	SubjectObject	broke.wav@
SentCompTask	157	1	<?xml version="1.0"?>\n<Clock xmlns:dt="urn:schemas-microsoft-com:datatypes"><Description dt:dt="string">E-Prime Primary Realtime Clock</Description><StartTime><Timestamp dt:dt="int">0</Timestamp><DateUtc dt:dt="string">2010-06-16T18:15:56Z</DateUtc></StartTime><FrequencyChanges><FrequencyChange><Frequency dt:dt="r8">3579545</Frequency><Timestamp dt:dt="r8">24445907824</Timestamp><Current dt:dt="r8">0</Current><DateUtc dt:dt="string">1969-12-31T20:46:40Z</DateUtc></FrequencyChange></FrequencyChanges></Clock>\n	62.401	1	-1323623217	06-16-2010	13:15:56	128	0	0	.	.	.	Sounds	0		490459	f	8648	499107	Task	511289	2012	104	1	104	SubjectObject	the.wav@
SentCompTask	157	1	<?xml version="1.0"?>\n<Clock xmlns:dt="urn:schemas-microsoft-com:datatypes"><Description dt:dt="string">E-Prime Primary Realtime Clock</Description><StartTime><Timestamp dt:dt="int">0</Timestamp><DateUtc dt:dt="string">2010-06-16T18:15:56Z</DateUtc></StartTime><FrequencyChanges><FrequencyChange><Frequency dt:dt="r8">3579545</Frequency><Timestamp dt:dt="r8">24445907824</Timestamp><Current dt:dt="r8">0</Current><DateUtc dt:dt="string">1969-12-31T20:46:40Z</DateUtc></FrequencyChange></FrequencyChanges></Clock>\n	62.401	1	-1323623217	06-16-2010	13:15:56	129	0	0	.	.	.	Sounds	0		490459	f	8648	499107	Task	513308	1528	105	1	105	SubjectObject	chair.wav@
SentCompTask	157	1	<?xml version="1.0"?>\n<Clock xmlns:dt="urn:schemas-microsoft-com:datatypes"><Description dt:dt="string">E-Prime Primary Realtime Clock</Description><StartTime><Timestamp dt:dt="int">0</Timestamp><DateUtc dt:dt="string">2010-06-16T18:15:56Z</DateUtc></StartTime><FrequencyChanges><FrequencyChange><Frequency dt:dt="r8">3579545</Frequency><Timestamp dt:dt="r8">24445907824</Timestamp><Current dt:dt="r8">0</Current><DateUtc dt:dt="string">1969-12-31T20:46:40Z</DateUtc></FrequencyChange></FrequencyChanges></Clock>\n	62.401	1	-1323623217	06-16-2010	13:15:56	130	0	0	.	.	.	Sounds	0		490459	f	8648	499107	Task	514846	1586	106	1	106	SubjectObject	in.wav@
SentCompTask	157	1	<?xml version="1.0"?>\n<Clock xmlns:dt="urn:schemas-microsoft-com:datatypes"><Description dt:dt="string">E-Prime Primary Realtime Clock</Description><StartTime><Timestamp dt:dt="int">0</Timestamp><DateUtc dt:dt="string">2010-06-16T18:15:56Z</DateUtc></StartTime><FrequencyChanges><FrequencyChange><Frequency dt:dt="r8">3579545</Frequency><Timestamp dt:dt="r8">24445907824</Timestamp><Current dt:dt="r8">0</Current><DateUtc dt:dt="string">1969-12-31T20:46:40Z</DateUtc></FrequencyChange></FrequencyChanges></Clock>\n	62.401	1	-1323623217	06-16-2010	13:15:56	131	0	0	.	.	.	Sounds	0		490459	f	8648	499107	Task	516449	1450	107	1	107	SubjectObject	the.wav@
SentCompTask	157	1	<?xml version="1.0"?>\n<Clock xmlns:dt="urn:schemas-microsoft-com:datatypes"><Description dt:dt="string">E-Prime Primary Realtime Clock</Description><StartTime><Timestamp dt:dt="int">0</Timestamp><DateUtc dt:dt="string">2010-06-16T18:15:56Z</DateUtc></StartTime><FrequencyChanges><FrequencyChange><Frequency dt:dt="r8">3579545</Frequency><Timestamp dt:dt="r8">24445907824</Timestamp><Current dt:dt="r8">0</Current><DateUtc dt:dt="string">1969-12-31T20:46:40Z</DateUtc></FrequencyChange></FrequencyChanges></Clock>\n	62.401	1	-1323623217	06-16-2010	13:15:56	132	5	1	.	.	.	Sounds	0		519493	f	11671	531164	Task	517907	1569	108	1	108	SubjectObject	office.wav@
SentCompTask	157	1	<?xml version="1.0"?>\n<Clock xmlns:dt="urn:schemas-microsoft-com:datatypes"><Description dt:dt="string">E-Prime Primary Realtime Clock</Description><StartTime><Timestamp dt:dt="int">0</Timestamp><DateUtc dt:dt="string">2010-06-16T18:15:56Z</DateUtc></StartTime><FrequencyChanges><FrequencyChange><Frequency dt:dt="r8">3579545</Frequency><Timestamp dt:dt="r8">24445907824</Timestamp><Current dt:dt="r8">0</Current><DateUtc dt:dt="string">1969-12-31T20:46:40Z</DateUtc></FrequencyChange></FrequencyChanges></Clock>\n	62.401	1	-1323623217	06-16-2010	13:15:56	133	0	0	.	.	.	Sounds	0		519493	f	11671	531164	Task	531174	1692	109	1	109	SubjectSubject	the.wav@
SentCompTask	157	1	<?xml version="1.0"?>\n<Clock xmlns:dt="urn:schemas-microsoft-com:datatypes"><Description dt:dt="string">E-Prime Primary Realtime Clock</Description><StartTime><Timestamp dt:dt="int">0</Timestamp><DateUtc dt:dt="string">2010-06-16T18:15:56Z</DateUtc></StartTime><FrequencyChanges><FrequencyChange><Frequency dt:dt="r8">3579545</Frequency><Timestamp dt:dt="r8">24445907824</Timestamp><Current dt:dt="r8">0</Current><DateUtc dt:dt="string">1969-12-31T20:46:40Z</DateUtc></FrequencyChange></FrequencyChanges></Clock>\n	62.401	1	-1323623217	06-16-2010	13:15:56	134	0	0	.	.	.	Sounds	0		519493	f	11671	531164	Task	532873	1500	110	1	110	SubjectSubject	author.wav@
SentCompTask	157	1	<?xml version="1.0"?>\n<Clock xmlns:dt="urn:schemas-microsoft-com:datatypes"><Description dt:dt="string">E-Prime Primary Realtime Clock</Description><StartTime><Timestamp dt:dt="int">0</Timestamp><DateUtc dt:dt="string">2010-06-16T18:15:56Z</DateUtc></StartTime><FrequencyChanges><FrequencyChange><Frequency dt:dt="r8">3579545</Frequency><Timestamp dt:dt="r8">24445907824</Timestamp><Current dt:dt="r8">0</Current><DateUtc dt:dt="string">1969-12-31T20:46:40Z</DateUtc></FrequencyChange></FrequencyChanges></Clock>\n	62.401	1	-1323623217	06-16-2010	13:15:56	135	0	0	.	.	.	Sounds	0		519493	f	11671	531164	Task	534379	1559	111	1	111	SubjectSubject	that.wav@
SentCompTask	157	1	<?xml version="1.0"?>\n<Clock xmlns:dt="urn:schemas-microsoft-com:datatypes"><Description dt:dt="string">E-Prime Primary Realtime Clock</Description><StartTime><Timestamp dt:dt="int">0</Timestamp><DateUtc dt:dt="string">2010-06-16T18:15:56Z</DateUtc></StartTime><FrequencyChanges><FrequencyChange><Frequency dt:dt="r8">3579545</Frequency><Timestamp dt:dt="r8">24445907824</Timestamp><Current dt:dt="r8">0</Current><DateUtc dt:dt="string">1969-12-31T20:46:40Z</DateUtc></FrequencyChange></FrequencyChanges></Clock>\n	62.401	1	-1323623217	06-16-2010	13:15:56	136	0	0	.	.	.	Sounds	0		519493	f	11671	531164	Task	535949	1514	112	1	112	SubjectSubject	disliked.wav@
SentCompTask	157	1	<?xml version="1.0"?>\n<Clock xmlns:dt="urn:schemas-microsoft-com:datatypes"><Description dt:dt="string">E-Prime Primary Realtime Clock</Description><StartTime><Timestamp dt:dt="int">0</Timestamp><DateUtc dt:dt="string">2010-06-16T18:15:56Z</DateUtc></StartTime><FrequencyChanges><FrequencyChange><Frequency dt:dt="r8">3579545</Frequency><Timestamp dt:dt="r8">24445907824</Timestamp><Current dt:dt="r8">0</Current><DateUtc dt:dt="string">1969-12-31T20:46:40Z</DateUtc></FrequencyChange></FrequencyChanges></Clock>\n	62.401	1	-1323623217	06-16-2010	13:15:56	137	0	0	.	.	.	Sounds	0		519493	f	11671	531164	Task	537471	1812	113	1	113	SubjectSubject	the.wav@
SentCompTask	157	1	<?xml version="1.0"?>\n<Clock xmlns:dt="urn:schemas-microsoft-com:datatypes"><Description dt:dt="string">E-Prime Primary Realtime Clock</Description><StartTime><Timestamp dt:dt="int">0</Timestamp><DateUtc dt:dt="string">2010-06-16T18:15:56Z</DateUtc></StartTime><FrequencyChanges><FrequencyChange><Frequency dt:dt="r8">3579545</Frequency><Timestamp dt:dt="r8">24445907824</Timestamp><Current dt:dt="r8">0</Current><DateUtc dt:dt="string">1969-12-31T20:46:40Z</DateUtc></FrequencyChange></FrequencyChanges></Clock>\n	62.401	1	-1323623217	06-16-2010	13:15:56	138	0	0	.	.	.	Sounds	0		519493	f	11671	531164	Task	539298	1634	114	1	114	SubjectSubject	police.wav@
SentCompTask	157	1	<?xml version="1.0"?>\n<Clock xmlns:dt="urn:schemas-microsoft-com:datatypes"><Description dt:dt="string">E-Prime Primary Realtime Clock</Description><StartTime><Timestamp dt:dt="int">0</Timestamp><DateUtc dt:dt="string">2010-06-16T18:15:56Z</DateUtc></StartTime><FrequencyChanges><FrequencyChange><Frequency dt:dt="r8">3579545</Frequency><Timestamp dt:dt="r8">24445907824</Timestamp><Current dt:dt="r8">0</Current><DateUtc dt:dt="string">1969-12-31T20:46:40Z</DateUtc></FrequencyChange></FrequencyChanges></Clock>\n	62.401	1	-1323623217	06-16-2010	13:15:56	139	0	0	.	.	.	Sounds	0		519493	f	11671	531164	Task	540948	1731	115	1	115	SubjectSubject	refused.wav@
SentCompTask	157	1	<?xml version="1.0"?>\n<Clock xmlns:dt="urn:schemas-microsoft-com:datatypes"><Description dt:dt="string">E-Prime Primary Realtime Clock</Description><StartTime><Timestamp dt:dt="int">0</Timestamp><DateUtc dt:dt="string">2010-06-16T18:15:56Z</DateUtc></StartTime><FrequencyChanges><FrequencyChange><Frequency dt:dt="r8">3579545</Frequency><Timestamp dt:dt="r8">24445907824</Timestamp><Current dt:dt="r8">0</Current><DateUtc dt:dt="string">1969-12-31T20:46:40Z</DateUtc></FrequencyChange></FrequencyChanges></Clock>\n	62.401	1	-1323623217	06-16-2010	13:15:56	140	0	0	.	.	.	Sounds	0		519493	f	11671	531164	Task	542695	2024	116	1	116	SubjectSubject	the.wav@
SentCompTask	157	1	<?xml version="1.0"?>\n<Clock xmlns:dt="urn:schemas-microsoft-com:datatypes"><Description dt:dt="string">E-Prime Primary Realtime Clock</Description><StartTime><Timestamp dt:dt="int">0</Timestamp><DateUtc dt:dt="string">2010-06-16T18:15:56Z</DateUtc></StartTime><FrequencyChanges><FrequencyChange><Frequency dt:dt="r8">3579545</Frequency><Timestamp dt:dt="r8">24445907824</Timestamp><Current dt:dt="r8">0</Current><DateUtc dt:dt="string">1969-12-31T20:46:40Z</DateUtc></FrequencyChange></FrequencyChanges></Clock>\n	62.401	1	-1323623217	06-16-2010	13:15:56	141	0	0	.	.	.	Sounds	0		519493	f	11671	531164	Task	544730	2144	117	1	117	SubjectSubject	award.wav@
SentCompTask	157	1	<?xml version="1.0"?>\n<Clock xmlns:dt="urn:schemas-microsoft-com:datatypes"><Description dt:dt="string">E-Prime Primary Realtime Clock</Description><StartTime><Timestamp dt:dt="int">0</Timestamp><DateUtc dt:dt="string">2010-06-16T18:15:56Z</DateUtc></StartTime><FrequencyChanges><FrequencyChange><Frequency dt:dt="r8">3579545</Frequency><Timestamp dt:dt="r8">24445907824</Timestamp><Current dt:dt="r8">0</Current><DateUtc dt:dt="string">1969-12-31T20:46:40Z</DateUtc></FrequencyChange></FrequencyChanges></Clock>\n	62.401	1	-1323623217	06-16-2010	13:15:56	142	0	0	.	.	.	Sounds	0		519493	f	11671	531164	Task	546877	1387	118	1	118	SubjectSubject	for.wav@
SentCompTask	157	1	<?xml version="1.0"?>\n<Clock xmlns:dt="urn:schemas-microsoft-com:datatypes"><Description dt:dt="string">E-Prime Primary Realtime Clock</Description><StartTime><Timestamp dt:dt="int">0</Timestamp><DateUtc dt:dt="string">2010-06-16T18:15:56Z</DateUtc></StartTime><FrequencyChanges><FrequencyChange><Frequency dt:dt="r8">3579545</Frequency><Timestamp dt:dt="r8">24445907824</Timestamp><Current dt:dt="r8">0</Current><DateUtc dt:dt="string">1969-12-31T20:46:40Z</DateUtc></FrequencyChange></FrequencyChanges></Clock>\n	62.401	1	-1323623217	06-16-2010	13:15:56	143	0	0	.	.	.	Sounds	0		519493	f	11671	531164	Task	548271	1438	119	1	119	SubjectSubject	his.wav@
SentCompTask	157	1	<?xml version="1.0"?>\n<Clock xmlns:dt="urn:schemas-microsoft-com:datatypes"><Description dt:dt="string">E-Prime Primary Realtime Clock</Description><StartTime><Timestamp dt:dt="int">0</Timestamp><DateUtc dt:dt="string">2010-06-16T18:15:56Z</DateUtc></StartTime><FrequencyChanges><FrequencyChange><Frequency dt:dt="r8">3579545</Frequency><Timestamp dt:dt="r8">24445907824</Timestamp><Current dt:dt="r8">0</Current><DateUtc dt:dt="string">1969-12-31T20:46:40Z</DateUtc></FrequencyChange></FrequencyChanges></Clock>\n	62.401	1	-1323623217	06-16-2010	13:15:56	144	5	1	.	.	.	Sounds	0		551684	f	7434	559118	Task	549713	1955	120	1	120	SubjectSubject	action.wav@
SentCompTask	157	1	<?xml version="1.0"?>\n<Clock xmlns:dt="urn:schemas-microsoft-com:datatypes"><Description dt:dt="string">E-Prime Primary Realtime Clock</Description><StartTime><Timestamp dt:dt="int">0</Timestamp><DateUtc dt:dt="string">2010-06-16T18:15:56Z</DateUtc></StartTime><FrequencyChanges><FrequencyChange><Frequency dt:dt="r8">3579545</Frequency><Timestamp dt:dt="r8">24445907824</Timestamp><Current dt:dt="r8">0</Current><DateUtc dt:dt="string">1969-12-31T20:46:40Z</DateUtc></FrequencyChange></FrequencyChanges></Clock>\n	62.401	1	-1323623217	06-16-2010	13:15:56	145	0	0	.	.	.	Sounds	0		551684	f	7434	559118	Task	559135	2030	121	1	121	SubjectSubject	the.wav@
SentCompTask	157	1	<?xml version="1.0"?>\n<Clock xmlns:dt="urn:schemas-microsoft-com:datatypes"><Description dt:dt="string">E-Prime Primary Realtime Clock</Description><StartTime><Timestamp dt:dt="int">0</Timestamp><DateUtc dt:dt="string">2010-06-16T18:15:56Z</DateUtc></StartTime><FrequencyChanges><FrequencyChange><Frequency dt:dt="r8">3579545</Frequency><Timestamp dt:dt="r8">24445907824</Timestamp><Current dt:dt="r8">0</Current><DateUtc dt:dt="string">1969-12-31T20:46:40Z</DateUtc></FrequencyChange></FrequencyChanges></Clock>\n	62.401	1	-1323623217	06-16-2010	13:15:56	146	0	0	.	.	.	Sounds	0		551684	f	7434	559118	Task	561170	1777	122	1	122	SubjectSubject	goat.wav@
SentCompTask	157	1	<?xml version="1.0"?>\n<Clock xmlns:dt="urn:schemas-microsoft-com:datatypes"><Description dt:dt="string">E-Prime Primary Realtime Clock</Description><StartTime><Timestamp dt:dt="int">0</Timestamp><DateUtc dt:dt="string">2010-06-16T18:15:56Z</DateUtc></StartTime><FrequencyChanges><FrequencyChange><Frequency dt:dt="r8">3579545</Frequency><Timestamp dt:dt="r8">24445907824</Timestamp><Current dt:dt="r8">0</Current><DateUtc dt:dt="string">1969-12-31T20:46:40Z</DateUtc></FrequencyChange></FrequencyChanges></Clock>\n	62.401	1	-1323623217	06-16-2010	13:15:56	147	0	0	.	.	.	Sounds	0		551684	f	7434	559118	Task	562965	1378	123	1	123	SubjectSubject	that.wav@
SentCompTask	157	1	<?xml version="1.0"?>\n<Clock xmlns:dt="urn:schemas-microsoft-com:datatypes"><Description dt:dt="string">E-Prime Primary Realtime Clock</Description><StartTime><Timestamp dt:dt="int">0</Timestamp><DateUtc dt:dt="string">2010-06-16T18:15:56Z</DateUtc></StartTime><FrequencyChanges><FrequencyChange><Frequency dt:dt="r8">3579545</Frequency><Timestamp dt:dt="r8">24445907824</Timestamp><Current dt:dt="r8">0</Current><DateUtc dt:dt="string">1969-12-31T20:46:40Z</DateUtc></FrequencyChange></FrequencyChanges></Clock>\n	62.401	1	-1323623217	06-16-2010	13:15:56	148	0	0	.	.	.	Sounds	0		551684	f	7434	559118	Task	564359	1447	124	1	124	SubjectSubject	found.wav@
