ExperimentName	Subject	Session	Display.RefreshRate	Group	RandomSeed	SessionDate	SessionTime	Block	CorrectAnswer	DecisionScreen	PracticeWAV	PracticeWAV.Cycle	PracticeWAV.Sample	Procedure	Response.ACC	Response.CRESP	Response.OnsetTime	Response.RESP	Response.RT	Response.RTTime	Running	Target.OnsetTime	Target.RT	Task	Task.Cycle	Task.Sample	Type	WAVfile
SentCompTask	21	1	0.000	1	1380490691	10-26-2011	15:59:55	1	0	0	1	1	1	Sounds	0		0		0	0	PracticeWAV	43993	3197	.	.	.	.	the.wav@
SentCompTask	21	1	0.000	1	1380490691	10-26-2011	15:59:55	2	0	0	2	1	2	Sounds	0		0		0	0	PracticeWAV	47240	1182	.	.	.	.	boy.wav@
SentCompTask	21	1	0.000	1	1380490691	10-26-2011	15:59:55	3	0	0	3	1	3	Sounds	0		0		0	0	PracticeWAV	48453	849	.	.	.	.	that.wav@
SentCompTask	21	1	0.000	1	1380490691	10-26-2011	15:59:55	4	0	0	4	1	4	Sounds	0		0		0	0	PracticeWAV	49316	1186	.	.	.	.	the.wav@
SentCompTask	21	1	0.000	1	1380490691	10-26-2011	15:59:55	5	0	0	5	1	5	Sounds	0		0		0	0	PracticeWAV	50555	955	.	.	.	.	girl.wav@
SentCompTask	21	1	0.000	1	1380490691	10-26-2011	15:59:55	6	0	0	6	1	6	Sounds	0		0		0	0	PracticeWAV	51541	1377	.	.	.	.	grabbed.wav@
SentCompTask	21	1	0.000	1	1380490691	10-26-2011	15:59:55	7	0	0	7	1	7	Sounds	0		0		0	0	PracticeWAV	52948	1122	.	.	.	.	was.wav@
SentCompTask	21	1	0.000	1	1380490691	10-26-2011	15:59:55	8	0	0	8	1	8	Sounds	0		0		0	0	PracticeWAV	54085	1041	.	.	.	.	wearing.wav@
SentCompTask	21	1	0.000	1	1380490691	10-26-2011	15:59:55	9	0	0	9	1	9	Sounds	0		0		0	0	PracticeWAV	55167	1159	.	.	.	.	a.wav@
SentCompTask	21	1	0.000	1	1380490691	10-26-2011	15:59:55	10	0	0	10	1	10	Sounds	0		0		0	0	PracticeWAV	56347	1259	.	.	.	.	bright.wav@
SentCompTask	21	1	0.000	1	1380490691	10-26-2011	15:59:55	11	0	0	11	1	11	Sounds	0		0		0	0	PracticeWAV	57632	966	.	.	.	.	blue.wav@
SentCompTask	21	1	0.000	1	1380490691	10-26-2011	15:59:55	12	1	1	12	1	12	Sounds	0		59425	t	4757	64182	PracticeWAV	58668	746	.	.	.	.	shirt.wav@
SentCompTask	21	1	0.000	1	1380490691	10-26-2011	15:59:55	13	0	0	13	1	13	Sounds	0		59425	t	4757	64182	PracticeWAV	64186	4524	.	.	.	.	the.wav@
SentCompTask	21	1	0.000	1	1380490691	10-26-2011	15:59:55	14	0	0	14	1	14	Sounds	0		59425	t	4757	64182	PracticeWAV	68745	765	.	.	.	.	man.wav@
SentCompTask	21	1	0.000	1	1380490691	10-26-2011	15:59:55	15	0	0	15	1	15	Sounds	0		59425	t	4757	64182	PracticeWAV	69533	713	.	.	.	.	who.wav@
SentCompTask	21	1	0.000	1	1380490691	10-26-2011	15:59:55	16	0	0	16	1	16	Sounds	0		59425	t	4757	64182	PracticeWAV	70280	814	.	.	.	.	adored.wav@
SentCompTask	21	1	0.000	1	1380490691	10-26-2011	15:59:55	17	0	0	17	1	17	Sounds	0		59425	t	4757	64182	PracticeWAV	71106	948	.	.	.	.	the.wav@
SentCompTask	21	1	0.000	1	1380490691	10-26-2011	15:59:55	18	0	0	18	1	18	Sounds	0		59425	t	4757	64182	PracticeWAV	72127	647	.	.	.	.	woman.wav@
SentCompTask	21	1	0.000	1	1380490691	10-26-2011	15:59:55	19	0	0	19	1	19	Sounds	0		59425	t	4757	64182	PracticeWAV	72787	1027	.	.	.	.	was.wav@
SentCompTask	21	1	0.000	1	1380490691	10-26-2011	15:59:55	20	0	0	20	1	20	Sounds	0		59425	t	4757	64182	PracticeWAV	73853	937	.	.	.	.	late.wav@
SentCompTask	21	1	0.000	1	1380490691	10-26-2011	15:59:55	21	0	0	21	1	21	Sounds	0		59425	t	4757	64182	PracticeWAV	74838	864	.	.	.	.	for.wav@
SentCompTask	21	1	0.000	1	1380490691	10-26-2011	15:59:55	22	0	0	22	1	22	Sounds	0		59425	t	4757	64182	PracticeWAV	75706	908	.	.	.	.	a.wav@
SentCompTask	21	1	0.000	1	1380490691	10-26-2011	15:59:55	23	0	0	23	1	23	Sounds	0		59425	t	4757	64182	PracticeWAV	76646	864	.	.	.	.	big.wav@
SentCompTask	21	1	0.000	1	1380490691	10-26-2011	15:59:55	24	1	1 	24	1	24	Sounds	0		78274	t	6387	84661	PracticeWAV	77565	696	.	.	.	.	meeting.wav@
SentCompTask	21	1	0.000	1	1380490691	10-26-2011	15:59:55	25	0	0	.	.	.	Sounds	0		78274	t	6387	84661	Task	90313	2108	1	1	1	SubjectObject	the.wav@
SentCompTask	21	1	0.000	1	1380490691	10-26-2011	15:59:55	26	0	0	.	.	.	Sounds	0		78274	t	6387	84661	Task	92449	788	2	1	2	SubjectObject	prince.wav@
SentCompTask	21	1	0.000	1	1380490691	10-26-2011	15:59:55	27	0	0	.	.	.	Sounds	0		78274	t	6387	84661	Task	93251	1042	3	1	3	SubjectObject	that.wav@
SentCompTask	21	1	0.000	1	1380490691	10-26-2011	15:59:55	28	0	0	.	.	.	Sounds	0		78274	t	6387	84661	Task	94306	963	4	1	4	SubjectObject	the.wav@
SentCompTask	21	1	0.000	1	1380490691	10-26-2011	15:59:55	29	0	0	.	.	.	Sounds	0		78274	t	6387	84661	Task	95309	840	5	1	5	SubjectObject	king.wav@
SentCompTask	21	1	0.000	1	1380490691	10-26-2011	15:59:55	30	0	0	.	.	.	Sounds	0		78274	t	6387	84661	Task	96193	980	6	1	6	SubjectObject	taught.wav@
SentCompTask	21	1	0.000	1	1380490691	10-26-2011	15:59:55	31	0	0	.	.	.	Sounds	0		78274	t	6387	84661	Task	97215	998	7	1	7	SubjectObject	rode.wav@
SentCompTask	21	1	0.000	1	1380490691	10-26-2011	15:59:55	32	0	0	.	.	.	Sounds	0		78274	t	6387	84661	Task	98217	1324	8	1	8	SubjectObject	the.wav@
SentCompTask	21	1	0.000	1	1380490691	10-26-2011	15:59:55	33	0	0	.	.	.	Sounds	0		78274	t	6387	84661	Task	99593	1020	9	1	9	SubjectObject	car.wav@
SentCompTask	21	1	0.000	1	1380490691	10-26-2011	15:59:55	34	0	0	.	.	.	Sounds	0		78274	t	6387	84661	Task	100678	671	10	1	10	SubjectObject	to.wav@
SentCompTask	21	1	0.000	1	1380490691	10-26-2011	15:59:55	35	0	0	.	.	.	Sounds	0		78274	t	6387	84661	Task	101363	690	11	1	11	SubjectObject	the.wav@
SentCompTask	21	1	0.000	1	1380490691	10-26-2011	15:59:55	36	5	1	.	.	.	Sounds	0		102817	f	5700	108517	Task	102126	679	12	1	12	SubjectObject	palace.wav@
SentCompTask	21	1	0.000	1	1380490691	10-26-2011	15:59:55	37	0	0	.	.	.	Sounds	0		102817	f	5700	108517	Task	108521	1372	13	1	13	SubjectObject	the.wav@
SentCompTask	21	1	0.000	1	1380490691	10-26-2011	15:59:55	38	0	0	.	.	.	Sounds	0		102817	f	5700	108517	Task	109950	935	14	1	14	SubjectObject	president.wav@
SentCompTask	21	1	0.000	1	1380490691	10-26-2011	15:59:55	39	0	0	.	.	.	Sounds	0		102817	f	5700	108517	Task	110899	866	15	1	15	SubjectObject	that.wav@
SentCompTask	21	1	0.000	1	1380490691	10-26-2011	15:59:55	40	0	0	.	.	.	Sounds	0		102817	f	5700	108517	Task	111778	883	16	1	16	SubjectObject	the.wav@
SentCompTask	21	1	0.000	1	1380490691	10-26-2011	15:59:55	41	0	0	.	.	.	Sounds	0		102817	f	5700	108517	Task	112697	908	17	1	17	SubjectObject	cashier.wav@
SentCompTask	21	1	0.000	1	1380490691	10-26-2011	15:59:55	42	0	0	.	.	.	Sounds	0		102817	f	5700	108517	Task	113666	931	18	1	18	SubjectObject	splashed.wav@
SentCompTask	21	1	0.000	1	1380490691	10-26-2011	15:59:55	43	0	0	.	.	.	Sounds	0		102817	f	5700	108517	Task	114670	775	19	1	19	SubjectObject	loved.wav@
SentCompTask	21	1	0.000	1	1380490691	10-26-2011	15:59:55	44	0	0	.	.	.	Sounds	0		102817	f	5700	108517	Task	115459	850	20	1	20	SubjectObject	the.wav@
SentCompTask	21	1	0.000	1	1380490691	10-26-2011	15:59:55	45	0	0	.	.	.	Sounds	0		102817	f	5700	108517	Task	116338	643	21	1	21	SubjectObject	flowers.wav@
SentCompTask	21	1	0.000	1	1380490691	10-26-2011	15:59:55	46	0	0	.	.	.	Sounds	0		102817	f	5700	108517	Task	117031	734	22	1	22	SubjectObject	in.wav@
SentCompTask	21	1	0.000	1	1380490691	10-26-2011	15:59:55	47	0	0	.	.	.	Sounds	0		102817	f	5700	108517	Task	117779	818	23	1	23	SubjectObject	the.wav@
SentCompTask	21	1	0.000	1	1380490691	10-26-2011	15:59:55	48	5	1	.	.	.	Sounds	0		119344	t	10325	129669	Task	118627	706	24	1	24	SubjectObject	pictures.wav@
SentCompTask	21	1	0.000	1	1380490691	10-26-2011	15:59:55	49	0	0	.	.	.	Sounds	0		119344	t	10325	129669	Task	129673	1132	25	1	25	SubjectSubject	the.wav@
SentCompTask	21	1	0.000	1	1380490691	10-26-2011	15:59:55	50	0	0	.	.	.	Sounds	0		119344	t	10325	129669	Task	130844	729	26	1	26	SubjectSubject	monkey.wav@
SentCompTask	21	1	0.000	1	1380490691	10-26-2011	15:59:55	51	0	0	.	.	.	Sounds	0		119344	t	10325	129669	Task	131587	818	27	1	27	SubjectSubject	that.wav@
SentCompTask	21	1	0.000	1	1380490691	10-26-2011	15:59:55	52	0	0	.	.	.	Sounds	0		119344	t	10325	129669	Task	132443	1012	28	1	28	SubjectSubject	followed.wav@
SentCompTask	21	1	0.000	1	1380490691	10-26-2011	15:59:55	53	0	0	.	.	.	Sounds	0		119344	t	10325	129669	Task	133459	962	29	1	29	SubjectSubject	the.wav@
SentCompTask	21	1	0.000	1	1380490691	10-26-2011	15:59:55	54	0	0	.	.	.	Sounds	0		119344	t	10325	129669	Task	134485	1011	30	1	30	SubjectSubject	frog.wav@
SentCompTask	21	1	0.000	1	1380490691	10-26-2011	15:59:55	55	0	0	.	.	.	Sounds	0		119344	t	10325	129669	Task	135525	864	31	1	31	SubjectSubject	left.wav@
SentCompTask	21	1	0.000	1	1380490691	10-26-2011	15:59:55	56	0	0	.	.	.	Sounds	0		119344	t	10325	129669	Task	136401	1028	32	1	32	SubjectSubject	the.wav@
SentCompTask	21	1	0.000	1	1380490691	10-26-2011	15:59:55	57	0	0	.	.	.	Sounds	0		119344	t	10325	129669	Task	137482	795	33	1	33	SubjectSubject	tree.wav@
SentCompTask	21	1	0.000	1	1380490691	10-26-2011	15:59:55	58	0	0	.	.	.	Sounds	0		119344	t	10325	129669	Task	138289	708	34	1	34	SubjectSubject	in.wav@
SentCompTask	21	1	0.000	1	1380490691	10-26-2011	15:59:55	59	0	0	.	.	.	Sounds	0		119344	t	10325	129669	Task	139011	801	35	1	35	SubjectSubject	a.wav@
SentCompTask	21	1	0.000	1	1380490691	10-26-2011	15:59:55	60	5	1	.	.	.	Sounds	0		140576	f	10948	151524	Task	139835	730	36	1	36	SubjectSubject	hurry.wav@
SentCompTask	21	1	0.000	1	1380490691	10-26-2011	15:59:55	61	0	0	.	.	.	Sounds	0		140576	f	10948	151524	Task	151528	924	37	1	37	SubjectSubject	the.wav@
SentCompTask	21	1	0.000	1	1380490691	10-26-2011	15:59:55	62	0	0	.	.	.	Sounds	0		140576	f	10948	151524	Task	152501	783	38	1	38	SubjectSubject	dancer.wav@
SentCompTask	21	1	0.000	1	1380490691	10-26-2011	15:59:55	63	0	0	.	.	.	Sounds	0		140576	f	10948	151524	Task	153297	803	39	1	39	SubjectSubject	that.wav@
SentCompTask	21	1	0.000	1	1380490691	10-26-2011	15:59:55	64	0	0	.	.	.	Sounds	0		140576	f	10948	151524	Task	154157	775	40	1	40	SubjectSubject	shoved.wav@
SentCompTask	21	1	0.000	1	1380490691	10-26-2011	15:59:55	65	0	0	.	.	.	Sounds	0		140576	f	10948	151524	Task	154945	899	41	1	41	SubjectSubject	the.wav@
SentCompTask	21	1	0.000	1	1380490691	10-26-2011	15:59:55	66	0	0	.	.	.	Sounds	0		140576	f	10948	151524	Task	155907	897	42	1	42	SubjectSubject	baker.wav@
SentCompTask	21	1	0.000	1	1380490691	10-26-2011	15:59:55	67	0	0	.	.	.	Sounds	0		140576	f	10948	151524	Task	156879	853	43	1	43	SubjectSubject	painted.wav@
SentCompTask	21	1	0.000	1	1380490691	10-26-2011	15:59:55	68	0	0	.	.	.	Sounds	0		140576	f	10948	151524	Task	157745	995	44	1	44	SubjectSubject	the.wav@
SentCompTask	21	1	0.000	1	1380490691	10-26-2011	15:59:55	69	0	0	.	.	.	Sounds	0		140576	f	10948	151524	Task	158775	845	45	1	45	SubjectSubject	sign.wav@
SentCompTask	21	1	0.000	1	1380490691	10-26-2011	15:59:55	70	0	0	.	.	.	Sounds	0		140576	f	10948	151524	Task	159645	903	46	1	46	SubjectSubject	before.wav@
SentCompTask	21	1	0.000	1	1380490691	10-26-2011	15:59:55	71	0	0	.	.	.	Sounds	0		140576	f	10948	151524	Task	160562	1011	47	1	47	SubjectSubject	the.wav@
SentCompTask	21	1	0.000	1	1380490691	10-26-2011	15:59:55	72	1	1	.	.	.	Sounds	0		162518	t	11598	174116	Task	161598	918	48	1	48	SubjectSubject	show.wav@
SentCompTask	21	1	0.000	1	1380490691	10-26-2011	15:59:55	73	0	0	.	.	.	Sounds	0		162518	t	11598	174116	Task	174120	1388	49	1	49	SubjectSubject	the.wav@
SentCompTask	21	1	0.000	1	1380490691	10-26-2011	15:59:55	74	0	0	.	.	.	Sounds	0		162518	t	11598	174116	Task	175565	1063	50	1	50	SubjectSubject	bear.wav@
SentCompTask	21	1	0.000	1	1380490691	10-26-2011	15:59:55	75	0	0	.	.	.	Sounds	0		162518	t	11598	174116	Task	176632	780	51	1	51	SubjectSubject	that.wav@
SentCompTask	21	1	0.000	1	1380490691	10-26-2011	15:59:55	76	0	0	.	.	.	Sounds	0		162518	t	11598	174116	Task	177452	856	52	1	52	SubjectSubject	scared.wav@
SentCompTask	21	1	0.000	1	1380490691	10-26-2011	15:59:55	77	0	0	.	.	.	Sounds	0		162518	t	11598	174116	Task	178320	916	53	1	53	SubjectSubject	the.wav@
SentCompTask	21	1	0.000	1	1380490691	10-26-2011	15:59:55	78	0	0	.	.	.	Sounds	0		162518	t	11598	174116	Task	179281	867	54	1	54	SubjectSubject	lion.wav@
SentCompTask	21	1	0.000	1	1380490691	10-26-2011	15:59:55	79	0	0	.	.	.	Sounds	0		162518	t	11598	174116	Task	180216	812	55	1	55	SubjectSubject	climbed.wav@
SentCompTask	21	1	0.000	1	1380490691	10-26-2011	15:59:55	80	0	0	.	.	.	Sounds	0		162518	t	11598	174116	Task	181042	834	56	1	56	SubjectSubject	the.wav@
SentCompTask	21	1	0.000	1	1380490691	10-26-2011	15:59:55	81	0	0	.	.	.	Sounds	0		162518	t	11598	174116	Task	181915	729	57	1	57	SubjectSubject	mountain.wav@
SentCompTask	21	1	0.000	1	1380490691	10-26-2011	15:59:55	82	0	0	.	.	.	Sounds	0		162518	t	11598	174116	Task	182658	914	58	1	58	SubjectSubject	to.wav@
SentCompTask	21	1	0.000	1	1380490691	10-26-2011	15:59:55	83	0	0	.	.	.	Sounds	0		162518	t	11598	174116	Task	183585	851	59	1	59	SubjectSubject	the.wav@
SentCompTask	21	1	0.000	1	1380490691	10-26-2011	15:59:55	84	1	1	.	.	.	Sounds	0		185215	f	7653	192868	Task	184466	738	60	1	60	SubjectSubject	top.wav@
SentCompTask	21	1	0.000	1	1380490691	10-26-2011	15:59:55	85	0	0	.	.	.	Sounds	0		185215	f	7653	192868	Task	192871	1165	61	1	61	SubjectObject	the.wav@
SentCompTask	21	1	0.000	1	1380490691	10-26-2011	15:59:55	86	0	0	.	.	.	Sounds	0		185215	f	7653	192868	Task	194059	1017	62	1	62	SubjectObject	waiter.wav@
SentCompTask	21	1	0.000	1	1380490691	10-26-2011	15:59:55	87	0	0	.	.	.	Sounds	0		185215	f	7653	192868	Task	195079	1037	63	1	63	SubjectObject	that.wav@
SentCompTask	21	1	0.000	1	1380490691	10-26-2011	15:59:55	88	0	0	.	.	.	Sounds	0		185215	f	7653	192868	Task	196129	915	64	1	64	SubjectObject	the.wav@
SentCompTask	21	1	0.000	1	1380490691	10-26-2011	15:59:55	89	0	0	.	.	.	Sounds	0		185215	f	7653	192868	Task	197093	846	65	1	65	SubjectObject	manager.wav@
SentCompTask	21	1	0.000	1	1380490691	10-26-2011	15:59:55	90	0	0	.	.	.	Sounds	0		185215	f	7653	192868	Task	197977	1050	66	1	66	SubjectObject	blamed.wav@
SentCompTask	21	1	0.000	1	1380490691	10-26-2011	15:59:55	91	0	0	.	.	.	Sounds	0		185215	f	7653	192868	Task	199054	901	67	1	67	SubjectObject	carried.wav@
SentCompTask	21	1	0.000	1	1380490691	10-26-2011	15:59:55	92	0	0	.	.	.	Sounds	0		185215	f	7653	192868	Task	199970	1042	68	1	68	SubjectObject	the.wav@
SentCompTask	21	1	0.000	1	1380490691	10-26-2011	15:59:55	93	0	0	.	.	.	Sounds	0		185215	f	7653	192868	Task	201081	922	69	1	69	SubjectObject	suitcase.wav@
SentCompTask	21	1	0.000	1	1380490691	10-26-2011	15:59:55	94	0	0	.	.	.	Sounds	0		185215	f	7653	192868	Task	202048	963	70	1	70	SubjectObject	up.wav@
SentCompTask	21	1	0.000	1	1380490691	10-26-2011	15:59:55	95	0	0	.	.	.	Sounds	0		185215	f	7653	192868	Task	203015	956	71	1	71	SubjectObject	the.wav@
SentCompTask	21	1	0.000	1	1380490691	10-26-2011	15:59:55	96	5	1	.	.	.	Sounds	0		205023	t	5300	210323	Task	204042	969	72	1	72	SubjectObject	stairs.wav@
SentCompTask	21	1	0.000	1	1380490691	10-26-2011	15:59:55	97	0	0	.	.	.	Sounds	0		205023	t	5300	210323	Task	210327	1388	73	1	73	SubjectObject	the.wav@
SentCompTask	21	1	0.000	1	1380490691	10-26-2011	15:59:55	98	0	0	.	.	.	Sounds	0		205023	t	5300	210323	Task	211735	1020	74	1	74	SubjectObject	turkey.wav@
SentCompTask	21	1	0.000	1	1380490691	10-26-2011	15:59:55	99	0	0	.	.	.	Sounds	0		205023	t	5300	210323	Task	212759	1004	75	1	75	SubjectObject	that.wav@
SentCompTask	21	1	0.000	1	1380490691	10-26-2011	15:59:55	100	0	0	.	.	.	Sounds	0		205023	t	5300	210323	Task	213777	1090	76	1	76	SubjectObject	the.wav@
SentCompTask	21	1	0.000	1	1380490691	10-26-2011	15:59:55	101	0	0	.	.	.	Sounds	0		205023	t	5300	210323	Task	214914	1041	77	1	77	SubjectObject	snake.wav@
SentCompTask	21	1	0.000	1	1380490691	10-26-2011	15:59:55	102	0	0	.	.	.	Sounds	0		205023	t	5300	210323	Task	215959	972	78	1	78	SubjectObject	scared.wav@
SentCompTask	21	1	0.000	1	1380490691	10-26-2011	15:59:55	103	0	0	.	.	.	Sounds	0		205023	t	5300	210323	Task	216961	1202	79	1	79	SubjectObject	drank.wav@
SentCompTask	21	1	0.000	1	1380490691	10-26-2011	15:59:55	104	0	0	.	.	.	Sounds	0		205023	t	5300	210323	Task	218167	1132	80	1	80	SubjectObject	the.wav@
SentCompTask	21	1	0.000	1	1380490691	10-26-2011	15:59:55	105	0	0	.	.	.	Sounds	0		205023	t	5300	210323	Task	219348	975	81	1	81	SubjectObject	water.wav@
SentCompTask	21	1	0.000	1	1380490691	10-26-2011	15:59:55	106	0	0	.	.	.	Sounds	0		205023	t	5300	210323	Task	220351	932	82	1	82	SubjectObject	from.wav@
SentCompTask	21	1	0.000	1	1380490691	10-26-2011	15:59:55	107	0	0	.	.	.	Sounds	0		205023	t	5300	210323	Task	221287	924	83	1	83	SubjectObject	the.wav@
SentCompTask	21	1	0.000	1	1380490691	10-26-2011	15:59:55	108	1	1	.	.	.	Sounds	0		223166	t	5301	228467	Task	222273	882	84	1	84	SubjectObject	bucket.wav@
SentCompTask	21	1	0.000	1	1380490691	10-26-2011	15:59:55	109	0	0	.	.	.	Sounds	0		223166	t	5301	228467	Task	228471	1148	85	1	85	SubjectSubject	the.wav@
SentCompTask	21	1	0.000	1	1380490691	10-26-2011	15:59:55	110	0	0	.	.	.	Sounds	0		223166	t	5301	228467	Task	229647	916	86	1	86	SubjectSubject	horse.wav@
SentCompTask	21	1	0.000	1	1380490691	10-26-2011	15:59:55	111	0	0	.	.	.	Sounds	0		223166	t	5301	228467	Task	230576	819	87	1	87	SubjectSubject	that.wav@
SentCompTask	21	1	0.000	1	1380490691	10-26-2011	15:59:55	112	0	0	.	.	.	Sounds	0		223166	t	5301	228467	Task	231425	818	88	1	88	SubjectSubject	kicked.wav@
SentCompTask	21	1	0.000	1	1380490691	10-26-2011	15:59:55	113	0	0	.	.	.	Sounds	0		223166	t	5301	228467	Task	232256	883	89	1	89	SubjectSubject	the.wav@
SentCompTask	21	1	0.000	1	1380490691	10-26-2011	15:59:55	114	0	0	.	.	.	Sounds	0		223166	t	5301	228467	Task	233190	781	90	1	90	SubjectSubject	cow.wav@
SentCompTask	21	1	0.000	1	1380490691	10-26-2011	15:59:55	115	0	0	.	.	.	Sounds	0		223166	t	5301	228467	Task	234010	905	91	1	91	SubjectSubject	broke.wav@
SentCompTask	21	1	0.000	1	1380490691	10-26-2011	15:59:55	116	0	0	.	.	.	Sounds	0		223166	t	5301	228467	Task	234929	914	92	1	92	SubjectSubject	the.wav@
SentCompTask	21	1	0.000	1	1380490691	10-26-2011	15:59:55	117	0	0	.	.	.	Sounds	0		223166	t	5301	228467	Task	235881	858	93	1	93	SubjectSubject	gate.wav@
SentCompTask	21	1	0.000	1	1380490691	10-26-2011	15:59:55	118	0	0	.	.	.	Sounds	0		223166	t	5301	228467	Task	236752	1635	94	1	94	SubjectSubject	to.wav@
SentCompTask	21	1	0.000	1	1380490691	10-26-2011	15:59:55	119	0	0	.	.	.	Sounds	0		223166	t	5301	228467	Task	238391	1100	95	1	95	SubjectSubject	the.wav@
SentCompTask	21	1	0.000	1	1380490691	10-26-2011	15:59:55	120	5	1	.	.	.	Sounds	0		240398	t	4277	244675	Task	239510	877	96	1	96	SubjectSubject	fence.wav@
SentCompTask	21	1	0.000	1	1380490691	10-26-2011	15:59:55	121	0	0	.	.	.	Sounds	0		240398	t	4277	244675	Task	244679	1916	97	1	97	SubjectObject	the.wav@
SentCompTask	21	1	0.000	1	1380490691	10-26-2011	15:59:55	122	0	0	.	.	.	Sounds	0		240398	t	4277	244675	Task	246617	922	98	1	98	SubjectObject	child.wav@
SentCompTask	21	1	0.000	1	1380490691	10-26-2011	15:59:55	123	0	0	.	.	.	Sounds	0		240398	t	4277	244675	Task	247552	755	99	1	99	SubjectObject	that.wav@
SentCompTask	21	1	0.000	1	1380490691	10-26-2011	15:59:55	124	0	0	.	.	.	Sounds	0		240398	t	4277	244675	Task	248319	804	100	1	100	SubjectObject	the.wav@
SentCompTask	21	1	0.000	1	1380490691	10-26-2011	15:59:55	125	0	0	.	.	.	Sounds	0		240398	t	4277	244675	Task	249188	831	101	1	101	SubjectObject	artist.wav@
SentCompTask	21	1	0.000	1	1380490691	10-26-2011	15:59:55	126	0	0	.	.	.	Sounds	0		240398	t	4277	244675	Task	250056	1067	102	1	102	SubjectObject	drew.wav@
SentCompTask	21	1	0.000	1	1380490691	10-26-2011	15:59:55	127	0	0	.	.	.	Sounds	0		240398	t	4277	244675	Task	251126	1101	103	1	103	SubjectObject	broke.wav@
SentCompTask	21	1	0.000	1	1380490691	10-26-2011	15:59:55	128	0	0	.	.	.	Sounds	0		240398	t	4277	244675	Task	252240	803	104	1	104	SubjectObject	the.wav@
SentCompTask	21	1	0.000	1	1380490691	10-26-2011	15:59:55	129	0	0	.	.	.	Sounds	0		240398	t	4277	244675	Task	253081	826	105	1	105	SubjectObject	chair.wav@
SentCompTask	21	1	0.000	1	1380490691	10-26-2011	15:59:55	130	0	0	.	.	.	Sounds	0		240398	t	4277	244675	Task	253920	675	106	1	106	SubjectObject	in.wav@
SentCompTask	21	1	0.000	1	1380490691	10-26-2011	15:59:55	131	0	0	.	.	.	Sounds	0		240398	t	4277	244675	Task	254607	852	107	1	107	SubjectObject	the.wav@
SentCompTask	21	1	0.000	1	1380490691	10-26-2011	15:59:55	132	5	1	.	.	.	Sounds	0		256221	f	5541	261762	Task	255501	710	108	1	108	SubjectObject	office.wav@
SentCompTask	21	1	0.000	1	1380490691	10-26-2011	15:59:55	133	0	0	.	.	.	Sounds	0		256221	f	5541	261762	Task	261766	1772	109	1	109	SubjectSubject	the.wav@
SentCompTask	21	1	0.000	1	1380490691	10-26-2011	15:59:55	134	0	0	.	.	.	Sounds	0		256221	f	5541	261762	Task	263570	992	110	1	110	SubjectSubject	author.wav@
SentCompTask	21	1	0.000	1	1380490691	10-26-2011	15:59:55	135	0	0	.	.	.	Sounds	0		256221	f	5541	261762	Task	264566	1004	111	1	111	SubjectSubject	that.wav@
SentCompTask	21	1	0.000	1	1380490691	10-26-2011	15:59:55	136	0	0	.	.	.	Sounds	0		256221	f	5541	261762	Task	265615	1203	112	1	112	SubjectSubject	disliked.wav@
SentCompTask	21	1	0.000	1	1380490691	10-26-2011	15:59:55	137	0	0	.	.	.	Sounds	0		256221	f	5541	261762	Task	266833	1441	113	1	113	SubjectSubject	the.wav@
SentCompTask	21	1	0.000	1	1380490691	10-26-2011	15:59:55	138	0	0	.	.	.	Sounds	0		256221	f	5541	261762	Task	268309	1085	114	1	114	SubjectSubject	police.wav@
SentCompTask	21	1	0.000	1	1380490691	10-26-2011	15:59:55	139	0	0	.	.	.	Sounds	0		256221	f	5541	261762	Task	269451	1143	115	1	115	SubjectSubject	refused.wav@
SentCompTask	21	1	0.000	1	1380490691	10-26-2011	15:59:55	140	0	0	.	.	.	Sounds	0		256221	f	5541	261762	Task	270608	930	116	1	116	SubjectSubject	the.wav@
SentCompTask	21	1	0.000	1	1380490691	10-26-2011	15:59:55	141	0	0	.	.	.	Sounds	0		256221	f	5541	261762	Task	271577	889	117	1	117	SubjectSubject	award.wav@
SentCompTask	21	1	0.000	1	1380490691	10-26-2011	15:59:55	142	0	0	.	.	.	Sounds	0		256221	f	5541	261762	Task	272480	978	118	1	118	SubjectSubject	for.wav@
SentCompTask	21	1	0.000	1	1380490691	10-26-2011	15:59:55	143	0	0	.	.	.	Sounds	0		256221	f	5541	261762	Task	273485	917	119	1	119	SubjectSubject	his.wav@
SentCompTask	21	1	0.000	1	1380490691	10-26-2011	15:59:55	144	5	1	.	.	.	Sounds	0		275449	t	5225	280674	Task	274436	1011	120	1	120	SubjectSubject	action.wav@
SentCompTask	21	1	0.000	1	1380490691	10-26-2011	15:59:55	145	0	0	.	.	.	Sounds	0		275449	t	5225	280674	Task	280678	2764	121	1	121	SubjectSubject	the.wav@
SentCompTask	21	1	0.000	1	1380490691	10-26-2011	15:59:55	146	0	0	.	.	.	Sounds	0		275449	t	5225	280674	Task	283469	1253	122	1	122	SubjectSubject	goat.wav@
SentCompTask	21	1	0.000	1	1380490691	10-26-2011	15:59:55	147	0	0	.	.	.	Sounds	0		275449	t	5225	280674	Task	284726	828	123	1	123	SubjectSubject	that.wav@
SentCompTask	21	1	0.000	1	1380490691	10-26-2011	15:59:55	148	0	0	.	.	.	Sounds	0		275449	t	5225	280674	Task	285587	847	124	1	124	SubjectSubject	found.wav@
SentCompTask	21	1	0.000	1	1380490691	10-26-2011	15:59:55	149	0	0	.	.	.	Sounds	0		275449	t	5225	280674	Task	286438	860	125	1	125	SubjectSubject	the.wav@
SentCompTask	21	1	0.000	1	1380490691	10-26-2011	15:59:55	150	0	0	.	.	.	Sounds	0		275449	t	5225	280674	Task	287331	687	126	1	126	SubjectSubject	mouse.wav@
SentCompTask	21	1	0.000	1	1380490691	10-26-2011	15:59:55	151	0	0	.	.	.	Sounds	0		275449	t	5225	280674	Task	288070	1068	127	1	127	SubjectSubject	surprised.wav@
SentCompTask	21	1	0.000	1	1380490691	10-26-2011	15:59:55	152	0	0	.	.	.	Sounds	0		275449	t	5225	280674	Task	289151	1059	128	1	128	SubjectSubject	the.wav@
SentCompTask	21	1	0.000	1	1380490691	10-26-2011	15:59:55	153	0	0	.	.	.	Sounds	0		275449	t	5225	280674	Task	290239	835	129	1	129	SubjectSubject	farmer.wav@
SentCompTask	21	1	0.000	1	1380490691	10-26-2011	15:59:55	154	0	0	.	.	.	Sounds	0		275449	t	5225	280674	Task	291077	1117	130	1	130	SubjectSubject	in.wav@
SentCompTask	21	1	0.000	1	1380490691	10-26-2011	15:59:55	155	0	0	.	.	.	Sounds	0		275449	t	5225	280674	Task	292198	1212	131	1	131	SubjectSubject	the.wav@
SentCompTask	21	1	0.000	1	1380490691	10-26-2011	15:59:55	156	1	1	.	.	.	Sounds	0		294580	f	7342	301922	Task	293439	1139	132	1	132	SubjectSubject	barn.wav@
SentCompTask	21	1	0.000	1	1380490691	10-26-2011	15:59:55	157	0	0	.	.	.	Sounds	0		294580	f	7342	301922	Task	301926	1308	133	1	133	SubjectObject	the.wav@
SentCompTask	21	1	0.000	1	1380490691	10-26-2011	15:59:55	158	0	0	.	.	.	Sounds	0		294580	f	7342	301922	Task	303275	1063	134	1	134	SubjectObject	mother.wav@
SentCompTask	21	1	0.000	1	1380490691	10-26-2011	15:59:55	159	0	0	.	.	.	Sounds	0		294580	f	7342	301922	Task	304341	877	135	1	135	SubjectObject	that.wav@
SentCompTask	21	1	0.000	1	1380490691	10-26-2011	15:59:55	160	0	0	.	.	.	Sounds	0		294580	f	7342	301922	Task	305231	1027	136	1	136	SubjectObject	the.wav@
SentCompTask	21	1	0.000	1	1380490691	10-26-2011	15:59:55	161	0	0	.	.	.	Sounds	0		294580	f	7342	301922	Task	306284	1030	137	1	137	SubjectObject	robber.wav@
SentCompTask	21	1	0.000	1	1380490691	10-26-2011	15:59:55	162	0	0	.	.	.	Sounds	0		294580	f	7342	301922	Task	307337	1161	138	1	138	SubjectObject	hated.wav@
SentCompTask	21	1	0.000	1	1380490691	10-26-2011	15:59:55	163	0	0	.	.	.	Sounds	0		294580	f	7342	301922	Task	308526	1012	139	1	139	SubjectObject	dropped.wav@
SentCompTask	21	1	0.000	1	1380490691	10-26-2011	15:59:55	164	0	0	.	.	.	Sounds	0		294580	f	7342	301922	Task	309541	1037	140	1	140	SubjectObject	the.wav@
SentCompTask	21	1	0.000	1	1380490691	10-26-2011	15:59:55	165	0	0	.	.	.	Sounds	0		294580	f	7342	301922	Task	310602	840	141	1	141	SubjectObject	glass.wav@
SentCompTask	21	1	0.000	1	1380490691	10-26-2011	15:59:55	166	0	0	.	.	.	Sounds	0		294580	f	7342	301922	Task	311476	942	142	1	142	SubjectObject	on.wav@
SentCompTask	21	1	0.000	1	1380490691	10-26-2011	15:59:55	167	0	0	.	.	.	Sounds	0		294580	f	7342	301922	Task	312421	957	143	1	143	SubjectObject	the.wav@
SentCompTask	21	1	0.000	1	1380490691	10-26-2011	15:59:55	168	5	1	.	.	.	Sounds	0		314323	t	4910	319233	Task	313408	914	144	1	144	SubjectObject	floor.wav@
SentCompTask	21	1	0.000	1	1380490691	10-26-2011	15:59:55	169	0	0	.	.	.	Sounds	0		314323	t	4910	319233	Task	319237	1388	145	1	145	SubjectObject	the.wav@
SentCompTask	21	1	0.000	1	1380490691	10-26-2011	15:59:55	170	0	0	.	.	.	Sounds	0		314323	t	4910	319233	Task	320658	895	146	1	146	SubjectObject	deer.wav@
SentCompTask	21	1	0.000	1	1380490691	10-26-2011	15:59:55	171	0	0	.	.	.	Sounds	0		314323	t	4910	319233	Task	321566	739	147	1	147	SubjectObject	that.wav@
SentCompTask	21	1	0.000	1	1380490691	10-26-2011	15:59:55	172	0	0	.	.	.	Sounds	0		314323	t	4910	319233	Task	322318	851	148	1	148	SubjectObject	the.wav@
SentCompTask	21	1	0.000	1	1380490691	10-26-2011	15:59:55	173	0	0	.	.	.	Sounds	0		314323	t	4910	319233	Task	323201	849	149	1	149	SubjectObject	tiger.wav@
SentCompTask	21	1	0.000	1	1380490691	10-26-2011	15:59:55	174	0	0	.	.	.	Sounds	0		314323	t	4910	319233	Task	324089	840	150	1	150	SubjectObject	watched.wav@
SentCompTask	21	1	0.000	1	1380490691	10-26-2011	15:59:55	175	0	0	.	.	.	Sounds	0		314323	t	4910	319233	Task	324955	918	151	1	151	SubjectObject	entered.wav@
SentCompTask	21	1	0.000	1	1380490691	10-26-2011	15:59:55	176	0	0	.	.	.	Sounds	0		314323	t	4910	319233	Task	325887	882	152	1	152	SubjectObject	the.wav@
SentCompTask	21	1	0.000	1	1380490691	10-26-2011	15:59:55	177	0	0	.	.	.	Sounds	0		314323	t	4910	319233	Task	326819	798	153	1	153	SubjectObject	field.wav@
SentCompTask	21	1	0.000	1	1380490691	10-26-2011	15:59:55	178	0	0	.	.	.	Sounds	0		314323	t	4910	319233	Task	327631	761	154	1	154	SubjectObject	from.wav@
SentCompTask	21	1	0.000	1	1380490691	10-26-2011	15:59:55	179	0	0	.	.	.	Sounds	0		314323	t	4910	319233	Task	328396	901	155	1	155	SubjectObject	the.wav@
SentCompTask	21	1	0.000	1	1380490691	10-26-2011	15:59:55	180	5	1	.	.	.	Sounds	0		330228	t	3165	333393	Task	329332	893	156	1	156	SubjectObject	side.wav@
SentCompTask	21	1	0.000	1	1380490691	10-26-2011	15:59:55	181	0	0	.	.	.	Sounds	0		330228	t	3165	333393	Task	333397	2108	157	1	157	SubjectObject	the.wav@
SentCompTask	21	1	0.000	1	1380490691	10-26-2011	15:59:55	182	0	0	.	.	.	Sounds	0		330228	t	3165	333393	Task	335509	716	158	1	158	SubjectObject	man.wav@
SentCompTask	21	1	0.000	1	1380490691	10-26-2011	15:59:55	183	0	0	.	.	.	Sounds	0		330228	t	3165	333393	Task	336238	851	159	1	159	SubjectObject	that.wav@
SentCompTask	21	1	0.000	1	1380490691	10-26-2011	15:59:55	184	0	0	.	.	.	Sounds	0		330228	t	3165	333393	Task	337101	804	160	1	160	SubjectObject	the.wav@
SentCompTask	21	1	0.000	1	1380490691	10-26-2011	15:59:55	185	0	0	.	.	.	Sounds	0		330228	t	3165	333393	Task	337943	1034	161	1	161	SubjectObject	captain.wav@
SentCompTask	21	1	0.000	1	1380490691	10-26-2011	15:59:55	186	0	0	.	.	.	Sounds	0		330228	t	3165	333393	Task	339007	834	162	1	162	SubjectObject	invited.wav@
SentCompTask	21	1	0.000	1	1380490691	10-26-2011	15:59:55	187	0	0	.	.	.	Sounds	0		330228	t	3165	333393	Task	339881	856	163	1	163	SubjectObject	built.wav@
SentCompTask	21	1	0.000	1	1380490691	10-26-2011	15:59:55	188	0	0	.	.	.	Sounds	0		330228	t	3165	333393	Task	340750	1123	164	1	164	SubjectObject	the.wav@
SentCompTask	21	1	0.000	1	1380490691	10-26-2011	15:59:55	189	0	0	.	.	.	Sounds	0		330228	t	3165	333393	Task	341908	1037	165	1	165	SubjectObject	stage.wav@
SentCompTask	21	1	0.000	1	1380490691	10-26-2011	15:59:55	190	0	0	.	.	.	Sounds	0		330228	t	3165	333393	Task	342949	1036	166	1	166	SubjectObject	for.wav@
SentCompTask	21	1	0.000	1	1380490691	10-26-2011	15:59:55	191	0	0	.	.	.	Sounds	0		330228	t	3165	333393	Task	343989	988	167	1	167	SubjectObject	the.wav@
SentCompTask	21	1	0.000	1	1380490691	10-26-2011	15:59:55	192	1	1	.	.	.	Sounds	0		345932	t	6501	352433	Task	345004	917	168	1	168	SubjectObject	band.wav@
SentCompTask	21	1	0.000	1	1380490691	10-26-2011	15:59:55	193	0	0	.	.	.	Sounds	0		345932	t	6501	352433	Task	352437	796	169	1	169	SubjectObject	the.wav@
SentCompTask	21	1	0.000	1	1380490691	10-26-2011	15:59:55	194	0	0	.	.	.	Sounds	0		345932	t	6501	352433	Task	353269	796	170	1	170	SubjectObject	pig.wav@
SentCompTask	21	1	0.000	1	1380490691	10-26-2011	15:59:55	195	0	0	.	.	.	Sounds	0		345932	t	6501	352433	Task	354069	748	171	1	171	SubjectObject	that.wav@
SentCompTask	21	1	0.000	1	1380490691	10-26-2011	15:59:55	196	0	0	.	.	.	Sounds	0		345932	t	6501	352433	Task	354831	866	172	1	172	SubjectObject	the.wav@
SentCompTask	21	1	0.000	1	1380490691	10-26-2011	15:59:55	197	0	0	.	.	.	Sounds	0		345932	t	6501	352433	Task	355729	864	173	1	173	SubjectObject	dog.wav@
SentCompTask	21	1	0.000	1	1380490691	10-26-2011	15:59:55	198	0	0	.	.	.	Sounds	0		345932	t	6501	352433	Task	356635	854	174	1	174	SubjectObject	jumped.wav@
SentCompTask	21	1	0.000	1	1380490691	10-26-2011	15:59:55	199	0	0	.	.	.	Sounds	0		345932	t	6501	352433	Task	357529	1496	175	1	175	SubjectObject	ate.wav@
SentCompTask	21	1	0.000	1	1380490691	10-26-2011	15:59:55	200	0	0	.	.	.	Sounds	0		345932	t	6501	352433	Task	359028	989	176	1	176	SubjectObject	the.wav@
SentCompTask	21	1	0.000	1	1380490691	10-26-2011	15:59:55	201	0	0	.	.	.	Sounds	0		345932	t	6501	352433	Task	360057	1016	177	1	177	SubjectObject	trash.wav@
SentCompTask	21	1	0.000	1	1380490691	10-26-2011	15:59:55	202	0	0	.	.	.	Sounds	0		345932	t	6501	352433	Task	361085	980	178	1	178	SubjectObject	in.wav@
SentCompTask	21	1	0.000	1	1380490691	10-26-2011	15:59:55	203	0	0	.	.	.	Sounds	0		345932	t	6501	352433	Task	362068	1012	179	1	179	SubjectObject	the.wav@
SentCompTask	21	1	0.000	1	1380490691	10-26-2011	15:59:55	204	1	1	.	.	.	Sounds	0		364013	f	3780	367793	Task	363122	879	180	1	180	SubjectObject	street.wav@
SentCompTask	21	1	0.000	1	1380490691	10-26-2011	15:59:55	205	0	0	.	.	.	Sounds	0		364013	f	3780	367793	Task	367796	1277	181	1	181	SubjectSubject	the.wav@
SentCompTask	21	1	0.000	1	1380490691	10-26-2011	15:59:55	206	0	0	.	.	.	Sounds	0		364013	f	3780	367793	Task	369105	1152	182	1	182	SubjectSubject	principal.wav@
SentCompTask	21	1	0.000	1	1380490691	10-26-2011	15:59:55	207	0	0	.	.	.	Sounds	0		364013	f	3780	367793	Task	370260	829	183	1	183	SubjectSubject	who.wav@
SentCompTask	21	1	0.000	1	1380490691	10-26-2011	15:59:55	208	0	0	.	.	.	Sounds	0		364013	f	3780	367793	Task	371132	917	184	1	184	SubjectSubject	tripped.wav@
SentCompTask	21	1	0.000	1	1380490691	10-26-2011	15:59:55	209	0	0	.	.	.	Sounds	0		364013	f	3780	367793	Task	372061	820	185	1	185	SubjectSubject	the.wav@
SentCompTask	21	1	0.000	1	1380490691	10-26-2011	15:59:55	210	0	0	.	.	.	Sounds	0		364013	f	3780	367793	Task	372911	786	186	1	186	SubjectSubject	janitor.wav@
SentCompTask	21	1	0.000	1	1380490691	10-26-2011	15:59:55	211	0	0	.	.	.	Sounds	0		364013	f	3780	367793	Task	373730	879	187	1	187	SubjectSubject	used.wav@
SentCompTask	21	1	0.000	1	1380490691	10-26-2011	15:59:55	212	0	0	.	.	.	Sounds	0		364013	f	3780	367793	Task	374623	802	188	1	188	SubjectSubject	the.wav@
SentCompTask	21	1	0.000	1	1380490691	10-26-2011	15:59:55	213	0	0	.	.	.	Sounds	0		364013	f	3780	367793	Task	375451	678	189	1	189	SubjectSubject	phone.wav@
SentCompTask	21	1	0.000	1	1380490691	10-26-2011	15:59:55	214	0	0	.	.	.	Sounds	0		364013	f	3780	367793	Task	376141	820	190	1	190	SubjectSubject	to.wav@
SentCompTask	21	1	0.000	1	1380490691	10-26-2011	15:59:55	215	0	0	.	.	.	Sounds	0		364013	f	3780	367793	Task	376999	681	191	1	191	SubjectSubject	call.wav@
SentCompTask	21	1	0.000	1	1380490691	10-26-2011	15:59:55	216	5	1	.	.	.	Sounds	0		378333	t	4547	382880	Task	377711	610	192	1	192	SubjectSubject	home.wav@
SentCompTask	21	1	0.000	1	1380490691	10-26-2011	15:59:55	217	0	0	.	.	.	Sounds	0		378333	t	4547	382880	Task	382884	1132	193	1	193	SubjectObject	the.wav@
SentCompTask	21	1	0.000	1	1380490691	10-26-2011	15:59:55	218	0	0	.	.	.	Sounds	0		378333	t	4547	382880	Task	384043	885	194	1	194	SubjectObject	player.wav@
SentCompTask	21	1	0.000	1	1380490691	10-26-2011	15:59:55	219	0	0	.	.	.	Sounds	0		378333	t	4547	382880	Task	384943	785	195	1	195	SubjectObject	that.wav@
SentCompTask	21	1	0.000	1	1380490691	10-26-2011	15:59:55	220	0	0	.	.	.	Sounds	0		378333	t	4547	382880	Task	385742	946	196	1	196	SubjectObject	the.wav@
SentCompTask	21	1	0.000	1	1380490691	10-26-2011	15:59:55	221	0	0	.	.	.	Sounds	0		378333	t	4547	382880	Task	386720	832	197	1	197	SubjectObject	Indian.wav@
SentCompTask	21	1	0.000	1	1380490691	10-26-2011	15:59:55	222	0	0	.	.	.	Sounds	0		378333	t	4547	382880	Task	387611	821	198	1	198	SubjectObject	helped.wav@
SentCompTask	21	1	0.000	1	1380490691	10-26-2011	15:59:55	223	0	0	.	.	.	Sounds	0		378333	t	4547	382880	Task	388466	830	199	1	199	SubjectObject	smashed.wav@
SentCompTask	21	1	0.000	1	1380490691	10-26-2011	15:59:55	224	0	0	.	.	.	Sounds	0		378333	t	4547	382880	Task	389310	866	200	1	200	SubjectObject	the.wav@
SentCompTask	21	1	0.000	1	1380490691	10-26-2011	15:59:55	225	0	0	.	.	.	Sounds	0		378333	t	4547	382880	Task	390216	872	201	1	201	SubjectObject	vase.wav@
SentCompTask	21	1	0.000	1	1380490691	10-26-2011	15:59:55	226	0	0	.	.	.	Sounds	0		378333	t	4547	382880	Task	391102	722	202	1	202	SubjectObject	on.wav@
SentCompTask	21	1	0.000	1	1380490691	10-26-2011	15:59:55	227	0	0	.	.	.	Sounds	0		378333	t	4547	382880	Task	391837	867	203	1	203	SubjectObject	the.wav@
SentCompTask	21	1	0.000	1	1380490691	10-26-2011	15:59:55	228	1	1	.	.	.	Sounds	0		393595	t	4789	398384	Task	392734	850	204	1	204	SubjectObject	table.wav@
SentCompTask	21	1	0.000	1	1380490691	10-26-2011	15:59:55	229	0	0	.	.	.	Sounds	0		393595	t	4789	398384	Task	398388	1036	205	1	205	SubjectSubject	the.wav@
SentCompTask	21	1	0.000	1	1380490691	10-26-2011	15:59:55	230	0	0	.	.	.	Sounds	0		393595	t	4789	398384	Task	399460	764	206	1	206	SubjectSubject	lawyer.wav@
SentCompTask	21	1	0.000	1	1380490691	10-26-2011	15:59:55	231	0	0	.	.	.	Sounds	0		393595	t	4789	398384	Task	400237	755	207	1	207	SubjectSubject	that.wav@
SentCompTask	21	1	0.000	1	1380490691	10-26-2011	15:59:55	232	0	0	.	.	.	Sounds	0		393595	t	4789	398384	Task	401027	861	208	1	208	SubjectSubject	upset.wav@
SentCompTask	21	1	0.000	1	1380490691	10-26-2011	15:59:55	233	0	0	.	.	.	Sounds	0		393595	t	4789	398384	Task	401901	963	209	1	209	SubjectSubject	the.wav@
SentCompTask	21	1	0.000	1	1380490691	10-26-2011	15:59:55	234	0	0	.	.	.	Sounds	0		393595	t	4789	398384	Task	402910	850	210	1	210	SubjectSubject	prisoner.wav@
SentCompTask	21	1	0.000	1	1380490691	10-26-2011	15:59:55	235	0	0	.	.	.	Sounds	0		393595	t	4789	398384	Task	403796	844	211	1	211	SubjectSubject	stopped.wav@
SentCompTask	21	1	0.000	1	1380490691	10-26-2011	15:59:55	236	0	0	.	.	.	Sounds	0		393595	t	4789	398384	Task	404653	835	212	1	212	SubjectSubject	the.wav@
SentCompTask	21	1	0.000	1	1380490691	10-26-2011	15:59:55	237	0	0	.	.	.	Sounds	0		393595	t	4789	398384	Task	405522	862	213	1	213	SubjectSubject	fight.wav@
SentCompTask	21	1	0.000	1	1380490691	10-26-2011	15:59:55	238	0	0	.	.	.	Sounds	0		393595	t	4789	398384	Task	406426	854	214	1	214	SubjectSubject	just.wav@
SentCompTask	21	1	0.000	1	1380490691	10-26-2011	15:59:55	239	0	0	.	.	.	Sounds	0		393595	t	4789	398384	Task	407294	898	215	1	215	SubjectSubject	in.wav@
SentCompTask	21	1	0.000	1	1380490691	10-26-2011	15:59:55	240	1	1	.	.	.	Sounds	0		409117	f	4531	413648	Task	408215	889	216	1	216	SubjectSubject	time.wav@
SentCompTask	21	1	0.000	1	1380490691	10-26-2011	15:59:55	241	0	0	.	.	.	Sounds	0		409117	f	4531	413648	Task	413652	1148	217	1	217	SubjectSubject	the.wav@
SentCompTask	21	1	0.000	1	1380490691	10-26-2011	15:59:55	242	0	0	.	.	.	Sounds	0		409117	f	4531	413648	Task	414829	979	218	1	218	SubjectSubject	doctor.wav@
SentCompTask	21	1	0.000	1	1380490691	10-26-2011	15:59:55	243	0	0	.	.	.	Sounds	0		409117	f	4531	413648	Task	415820	852	219	1	219	SubjectSubject	that.wav@
SentCompTask	21	1	0.000	1	1380490691	10-26-2011	15:59:55	244	0	0	.	.	.	Sounds	0		409117	f	4531	413648	Task	416702	898	220	1	220	SubjectSubject	phoned.wav@
SentCompTask	21	1	0.000	1	1380490691	10-26-2011	15:59:55	245	0	0	.	.	.	Sounds	0		409117	f	4531	413648	Task	417613	867	221	1	221	SubjectSubject	the.wav@
SentCompTask	21	1	0.000	1	1380490691	10-26-2011	15:59:55	246	0	0	.	.	.	Sounds	0		409117	f	4531	413648	Task	418492	788	222	1	222	SubjectSubject	artist.wav@
SentCompTask	21	1	0.000	1	1380490691	10-26-2011	15:59:55	247	0	0	.	.	.	Sounds	0		409117	f	4531	413648	Task	419294	690	223	1	223	SubjectSubject	watched.wav@
SentCompTask	21	1	0.000	1	1380490691	10-26-2011	15:59:55	248	0	0	.	.	.	Sounds	0		409117	f	4531	413648	Task	419997	867	224	1	224	SubjectSubject	the.wav@
SentCompTask	21	1	0.000	1	1380490691	10-26-2011	15:59:55	249	0	0	.	.	.	Sounds	0		409117	f	4531	413648	Task	420902	714	225	1	225	SubjectSubject	movie.wav@
SentCompTask	21	1	0.000	1	1380490691	10-26-2011	15:59:55	250	0	0	.	.	.	Sounds	0		409117	f	4531	413648	Task	421629	771	226	1	226	SubjectSubject	in.wav@
SentCompTask	21	1	0.000	1	1380490691	10-26-2011	15:59:55	251	0	0	.	.	.	Sounds	0		409117	f	4531	413648	Task	422403	829	227	1	227	SubjectSubject	the.wav@
SentCompTask	21	1	0.000	1	1380490691	10-26-2011	15:59:55	252	5	1	.	.	.	Sounds	0		424155	t	3765	427920	Task	423262	882	228	1	228	SubjectSubject	theater.wav@
SentCompTask	21	1	0.000	1	1380490691	10-26-2011	15:59:55	253	0	0	.	.	.	Sounds	0		424155	t	3765	427920	Task	427923	1613	229	1	229	SubjectSubject	the.wav@
SentCompTask	21	1	0.000	1	1380490691	10-26-2011	15:59:55	254	0	0	.	.	.	Sounds	0		424155	t	3765	427920	Task	429561	903	230	1	230	SubjectSubject	fireman.wav@
SentCompTask	21	1	0.000	1	1380490691	10-26-2011	15:59:55	255	0	0	.	.	.	Sounds	0		424155	t	3765	427920	Task	430478	834	231	1	231	SubjectSubject	that.wav@
SentCompTask	21	1	0.000	1	1380490691	10-26-2011	15:59:55	256	0	0	.	.	.	Sounds	0		424155	t	3765	427920	Task	431326	834	232	1	232	SubjectSubject	stopped.wav@
SentCompTask	21	1	0.000	1	1380490691	10-26-2011	15:59:55	257	0	0	.	.	.	Sounds	0		424155	t	3765	427920	Task	432173	691	233	1	233	SubjectSubject	the.wav@
SentCompTask	21	1	0.000	1	1380490691	10-26-2011	15:59:55	258	0	0	.	.	.	Sounds	0		424155	t	3765	427920	Task	432901	747	234	1	234	SubjectSubject	plumber.wav@
SentCompTask	21	1	0.000	1	1380490691	10-26-2011	15:59:55	259	0	0	.	.	.	Sounds	0		424155	t	3765	427920	Task	433684	668	235	1	235	SubjectSubject	heard.wav@
SentCompTask	21	1	0.000	1	1380490691	10-26-2011	15:59:55	260	0	0	.	.	.	Sounds	0		424155	t	3765	427920	Task	434366	994	236	1	236	SubjectSubject	the.wav@
SentCompTask	21	1	0.000	1	1380490691	10-26-2011	15:59:55	261	0	0	.	.	.	Sounds	0		424155	t	3765	427920	Task	435396	828	237	1	237	SubjectSubject	shout.wav@
SentCompTask	21	1	0.000	1	1380490691	10-26-2011	15:59:55	262	0	0	.	.	.	Sounds	0		424155	t	3765	427920	Task	436238	802	238	1	238	SubjectSubject	in.wav@
SentCompTask	21	1	0.000	1	1380490691	10-26-2011	15:59:55	263	0	0	.	.	.	Sounds	0		424155	t	3765	427920	Task	437044	812	239	1	239	SubjectSubject	the.wav@
SentCompTask	21	1	0.000	1	1380490691	10-26-2011	15:59:55	264	5	1	.	.	.	Sounds	0		439809	f	4894	444703	Task	437891	1916	240	1	240	SubjectSubject	basement.wav@
SentCompTask	21	1	0.000	1	1380490691	10-26-2011	15:59:55	265	0	0	.	.	.	Sounds	0		439809	f	4894	444703	Task	444707	1132	241	1	241	SubjectSubject	the.wav@
SentCompTask	21	1	0.000	1	1380490691	10-26-2011	15:59:55	266	0	0	.	.	.	Sounds	0		439809	f	4894	444703	Task	445858	909	242	1	242	SubjectSubject	banker.wav@
SentCompTask	21	1	0.000	1	1380490691	10-26-2011	15:59:55	267	0	0	.	.	.	Sounds	0		439809	f	4894	444703	Task	446780	707	243	1	243	SubjectSubject	that.wav@
SentCompTask	21	1	0.000	1	1380490691	10-26-2011	15:59:55	268	0	0	.	.	.	Sounds	0		439809	f	4894	444703	Task	447520	719	244	1	244	SubjectSubject	hugged.wav@
SentCompTask	21	1	0.000	1	1380490691	10-26-2011	15:59:55	269	0	0	.	.	.	Sounds	0		439809	f	4894	444703	Task	448252	915	245	1	245	SubjectSubject	the.wav@
SentCompTask	21	1	0.000	1	1380490691	10-26-2011	15:59:55	270	0	0	.	.	.	Sounds	0		439809	f	4894	444703	Task	449179	580	246	1	246	SubjectSubject	girl.wav@
SentCompTask	21	1	0.000	1	1380490691	10-26-2011	15:59:55	271	0	0	.	.	.	Sounds	0		439809	f	4894	444703	Task	449773	562	247	1	247	SubjectSubject	left.wav@
SentCompTask	21	1	0.000	1	1380490691	10-26-2011	15:59:55	272	0	0	.	.	.	Sounds	0		439809	f	4894	444703	Task	450348	643	248	1	248	SubjectSubject	the.wav@
SentCompTask	21	1	0.000	1	1380490691	10-26-2011	15:59:55	273	0	0	.	.	.	Sounds	0		439809	f	4894	444703	Task	451006	753	249	1	249	SubjectSubject	office.wav@
SentCompTask	21	1	0.000	1	1380490691	10-26-2011	15:59:55	274	0	0	.	.	.	Sounds	0		439809	f	4894	444703	Task	451803	820	250	1	250	SubjectSubject	quickly.wav@
SentCompTask	21	1	0.000	1	1380490691	10-26-2011	15:59:55	275	0	0	.	.	.	Sounds	0		439809	f	4894	444703	Task	452637	738	251	1	251	SubjectSubject	that.wav@
SentCompTask	21	1	0.000	1	1380490691	10-26-2011	15:59:55	276	1	1	.	.	.	Sounds	0		454203	t	4084	458287	Task	453411	780	252	1	252	SubjectSubject	afternoon.wav@
SentCompTask	21	1	0.000	1	1380490691	10-26-2011	15:59:55	277	0	0	.	.	.	Sounds	0		454203	t	4084	458287	Task	458292	1067	253	1	253	SubjectSubject	the.wav@
SentCompTask	21	1	0.000	1	1380490691	10-26-2011	15:59:55	278	0	0	.	.	.	Sounds	0		454203	t	4084	458287	Task	459390	769	254	1	254	SubjectSubject	painter.wav@
SentCompTask	21	1	0.000	1	1380490691	10-26-2011	15:59:55	279	0	0	.	.	.	Sounds	0		454203	t	4084	458287	Task	460173	754	255	1	255	SubjectSubject	that.wav@
SentCompTask	21	1	0.000	1	1380490691	10-26-2011	15:59:55	280	0	0	.	.	.	Sounds	0		454203	t	4084	458287	Task	460962	973	256	1	256	SubjectSubject	insulted.wav@
SentCompTask	21	1	0.000	1	1380490691	10-26-2011	15:59:55	281	0	0	.	.	.	Sounds	0		454203	t	4084	458287	Task	461948	835	257	1	257	SubjectSubject	the.wav@
SentCompTask	21	1	0.000	1	1380490691	10-26-2011	15:59:55	282	0	0	.	.	.	Sounds	0		454203	t	4084	458287	Task	462820	779	258	1	258	SubjectSubject	soldier.wav@
SentCompTask	21	1	0.000	1	1380490691	10-26-2011	15:59:55	283	0	0	.	.	.	Sounds	0		454203	t	4084	458287	Task	463654	729	259	1	259	SubjectSubject	wrote.wav@
SentCompTask	21	1	0.000	1	1380490691	10-26-2011	15:59:55	284	0	0	.	.	.	Sounds	0		454203	t	4084	458287	Task	464397	834	260	1	260	SubjectSubject	the.wav@
SentCompTask	21	1	0.000	1	1380490691	10-26-2011	15:59:55	285	0	0	.	.	.	Sounds	0		454203	t	4084	458287	Task	465259	708	261	1	261	SubjectSubject	letter.wav@
SentCompTask	21	1	0.000	1	1380490691	10-26-2011	15:59:55	286	0	0	.	.	.	Sounds	0		454203	t	4084	458287	Task	465981	722	262	1	262	SubjectSubject	to.wav@
SentCompTask	21	1	0.000	1	1380490691	10-26-2011	15:59:55	287	0	0	.	.	.	Sounds	0		454203	t	4084	458287	Task	466716	835	263	1	263	SubjectSubject	the.wav@
SentCompTask	21	1	0.000	1	1380490691	10-26-2011	15:59:55	288	1	1	.	.	.	Sounds	0		467657	t	6726	474383	Task	467580	67	264	1	264	SubjectSubject	paper.wav@
SentCompTask	21	1	0.000	1	1380490691	10-26-2011	15:59:55	289	0	0	.	.	.	Sounds	0		467657	t	6726	474383	Task	474387	972	265	1	265	SubjectObject	the.wav@
SentCompTask	21	1	0.000	1	1380490691	10-26-2011	15:59:55	290	0	0	.	.	.	Sounds	0		467657	t	6726	474383	Task	475392	783	266	1	266	SubjectObject	guard.wav@
SentCompTask	21	1	0.000	1	1380490691	10-26-2011	15:59:55	291	0	0	.	.	.	Sounds	0		467657	t	6726	474383	Task	476188	835	267	1	267	SubjectObject	that.wav@
SentCompTask	21	1	0.000	1	1380490691	10-26-2011	15:59:55	292	0	0	.	.	.	Sounds	0		467657	t	6726	474383	Task	477035	932	268	1	268	SubjectObject	the.wav@
SentCompTask	21	1	0.000	1	1380490691	10-26-2011	15:59:55	293	0	0	.	.	.	Sounds	0		467657	t	6726	474383	Task	478004	811	269	1	269	SubjectObject	skier.wav@
SentCompTask	21	1	0.000	1	1380490691	10-26-2011	15:59:55	294	0	0	.	.	.	Sounds	0		467657	t	6726	474383	Task	478844	1011	270	1	270	SubjectObject	touched.wav@
SentCompTask	21	1	0.000	1	1380490691	10-26-2011	15:59:55	295	0	0	.	.	.	Sounds	0		467657	t	6726	474383	Task	479873	750	271	1	271	SubjectObject	held.wav@
SentCompTask	21	1	0.000	1	1380490691	10-26-2011	15:59:55	296	0	0	.	.	.	Sounds	0		467657	t	6726	474383	Task	480637	882	272	1	272	SubjectObject	the.wav@
SentCompTask	21	1	0.000	1	1380490691	10-26-2011	15:59:55	297	0	0	.	.	.	Sounds	0		467657	t	6726	474383	Task	481555	796	273	1	273	SubjectObject	door.wav@
SentCompTask	21	1	0.000	1	1380490691	10-26-2011	15:59:55	298	0	0	.	.	.	Sounds	0		467657	t	6726	474383	Task	482385	718	274	1	274	SubjectObject	open.wav@
SentCompTask	21	1	0.000	1	1380490691	10-26-2011	15:59:55	299	0	0	.	.	.	Sounds	0		467657	t	6726	474383	Task	483117	866	275	1	275	SubjectObject	for.wav@
SentCompTask	21	1	0.000	1	1380490691	10-26-2011	15:59:55	300	0	0	.	.	.	Sounds	0		467657	t	6726	474383	Task	483986	829	276	1	276	SubjectObject	the.wav@
SentCompTask	21	1	0.000	1	1380490691	10-26-2011	15:59:55	301	1	1	.	.	.	Sounds	0		485529	f	8774	494303	Task	484860	659	277	1	277	SubjectObject	customers.wav@
SentCompTask	21	1	0.000	1	1380490691	10-26-2011	15:59:55	302	0	0	.	.	.	Sounds	0		485529	f	8774	494303	Task	494306	1165	278	1	278	SubjectObject	the.wav@
SentCompTask	21	1	0.000	1	1380490691	10-26-2011	15:59:55	303	0	0	.	.	.	Sounds	0		485529	f	8774	494303	Task	495474	1181	279	1	279	SubjectObject	painter.wav@
SentCompTask	21	1	0.000	1	1380490691	10-26-2011	15:59:55	304	0	0	.	.	.	Sounds	0		485529	f	8774	494303	Task	496658	924	280	1	280	SubjectObject	that.wav@
SentCompTask	21	1	0.000	1	1380490691	10-26-2011	15:59:55	305	0	0	.	.	.	Sounds	0		485529	f	8774	494303	Task	497596	1090	281	1	281	SubjectObject	the.wav@
SentCompTask	21	1	0.000	1	1380490691	10-26-2011	15:59:55	306	0	0	.	.	.	Sounds	0		485529	f	8774	494303	Task	498719	1535	282	1	282	SubjectObject	boyscout.wav@
SentCompTask	21	1	0.000	1	1380490691	10-26-2011	15:59:55	307	0	0	.	.	.	Sounds	0		485529	f	8774	494303	Task	500278	1016	283	1	283	SubjectObject	knew.wav@
SentCompTask	21	1	0.000	1	1380490691	10-26-2011	15:59:55	308	0	0	.	.	.	Sounds	0		485529	f	8774	494303	Task	501323	819	284	1	284	SubjectObject	noticed.wav@
SentCompTask	21	1	0.000	1	1380490691	10-26-2011	15:59:55	309	0	0	.	.	.	Sounds	0		485529	f	8774	494303	Task	502157	849	285	1	285	SubjectObject	the.wav@
SentCompTask	21	1	0.000	1	1380490691	10-26-2011	15:59:55	310	0	0	.	.	.	Sounds	0		485529	f	8774	494303	Task	503050	676	286	1	286	SubjectObject	problem.wav@
SentCompTask	21	1	0.000	1	1380490691	10-26-2011	15:59:55	311	0	0	.	.	.	Sounds	0		485529	f	8774	494303	Task	503767	759	287	1	287	SubjectObject	after.wav@
SentCompTask	21	1	0.000	1	1380490691	10-26-2011	15:59:55	312	0	0	.	.	.	Sounds	0		485529	f	8774	494303	Task	504539	755	288	1	288	SubjectObject	the.wav@
SentCompTask	21	1	0.000	1	1380490691	10-26-2011	15:59:55	313	1	1	.	.	.	Sounds	0		506010	t	6548	512558	Task	505309	689	289	1	289	SubjectObject	meeting.wav@
